state_time,accelx,accely,accelz,gyrox,gyroy,gyroz,mot_ang,mot_vel,mot_acc,mot_cur,mot_volt,batt_volt,batt_curr,temperature,status_mn,status_ex,status_re,genvar_0,genvar_1,genvar_2,genvar_3,genvar_4,genvar_5,genvar_6,genvar_7,genvar_8,genvar_9,ank_ang,ank_vel,sys_time,event flags
227904,-416,90,8186,-20,16,26,9823,1,-1,2,0,182,-1,25,144,0,6,0,0,0,0,0,0,-32294,0,0,0,4194,0,7148,0
227914,-402,88,8162,-16,14,28,9823,3,1,4,0,183,14,25,144,0,6,0,0,0,0,0,0,-32294,0,0,0,4193,0,227909,0
227924,-388,68,8164,-16,16,26,9823,1,-1,2,0,179,8,25,144,0,6,0,0,0,0,0,0,-32294,0,0,0,4193,0,227911,0
227934,-446,58,8152,-19,12,28,9824,-1,-2,1,0,175,-12,25,144,0,6,0,0,0,0,0,0,-32294,0,0,0,4193,0,227916,0
227944,-426,58,8160,-19,14,25,9822,-2,-3,7,0,173,-30,25,144,0,6,0,0,0,0,0,0,-32294,0,0,0,4194,0,227924,0
227954,-406,74,8178,-22,11,27,9824,7,6,-1,0,177,-45,25,144,0,6,0,0,0,0,0,0,-32294,0,0,0,4193,0,227940,0
227964,-412,96,8174,-13,13,28,9823,0,3,3,0,179,-21,25,144,0,6,0,0,0,0,0,0,-32293,0,0,0,4194,0,227946,0
227974,-400,76,8172,-21,15,28,9823,3,0,5,0,176,-42,25,144,0,6,0,0,0,0,0,0,-32294,0,0,0,4193,0,227953,0
227984,-396,72,8170,-17,14,29,9822,-5,-4,2,0,164,-60,25,144,0,6,0,0,0,0,0,0,-32293,0,0,0,4193,0,227963,0
227994,-426,60,8192,-19,19,26,9823,0,0,4,0,170,-48,25,144,0,6,0,0,0,0,0,0,-32294,0,0,0,4194,0,227987,0
228004,-396,74,8178,-20,14,25,9822,-4,-1,2,0,177,-12,25,144,0,6,0,0,0,0,0,0,-32294,0,0,0,4193,0,228005,0
228014,-416,54,8176,-12,13,26,9822,-7,-5,3,0,177,17,25,144,0,6,0,0,0,0,0,0,-32294,0,0,0,4193,0,228010,0
228024,-426,96,8168,-15,11,26,9822,1,-1,0,0,173,-1,25,144,0,6,0,0,0,0,0,0,-32294,0,0,0,4194,0,228015,0
228034,-428,68,8168,-21,16,24,9822,-3,0,-2,0,173,-12,25,144,0,6,0,0,0,0,0,0,-32294,0,0,0,4192,0,228020,0
228044,-376,72,8170,-17,15,24,9823,9,3,2,0,182,5,25,144,0,6,0,0,0,0,0,0,-32294,0,0,0,4194,0,228025,0
228054,-414,86,8162,-16,21,26,9823,-2,1,3,0,181,15,25,144,0,6,0,0,0,0,0,0,-32294,0,0,0,4194,0,228032,0
228064,-408,84,8156,-16,10,31,9822,0,5,6,0,173,-24,25,144,0,6,0,0,0,0,0,0,-32294,0,0,0,4194,0,228042,0
228074,-442,64,8176,-18,14,29,9823,1,1,5,0,176,-29,25,144,0,6,0,0,0,0,0,0,-32293,0,0,0,4194,0,228058,0
228084,-394,64,8150,-19,16,26,9823,1,-5,0,0,182,3,25,144,0,6,0,0,0,0,0,0,-32293,0,0,0,4193,0,228066,0
228094,-378,84,8162,-14,13,27,9823,4,-5,5,0,185,45,25,144,0,6,0,0,0,0,0,0,-32294,0,0,0,4194,0,228072,0
228104,-408,90,8160,-12,10,24,9822,-6,-1,1,0,178,40,25,144,0,6,0,0,0,0,0,0,-32294,0,0,0,4195,0,228085,0
228114,-424,86,8176,-23,18,26,9823,0,-1,5,0,174,9,25,144,0,6,0,0,0,0,0,0,-32294,0,0,0,4193,0,228099,0
228124,-410,90,8158,-17,20,32,9823,0,-1,2,0,176,-15,25,144,0,6,0,0,0,0,0,0,-32294,0,0,0,4195,0,228104,0
228134,-400,58,8168,-18,10,21,9823,2,2,0,0,177,-1,25,144,0,6,0,0,0,0,0,0,-32294,0,0,0,4194,0,228113,0
228144,-422,56,8184,-16,14,26,9823,0,-1,6,0,175,-40,25,144,0,6,0,0,0,0,0,0,-32294,0,0,0,4194,0,228123,0
228154,-448,56,8162,-16,14,27,9822,3,3,0,0,177,-7,25,144,0,6,0,0,0,0,0,0,-32294,0,0,0,4193,0,228140,0
228164,-426,74,8146,-24,18,28,9823,4,2,9,0,178,-13,25,144,0,6,0,0,0,0,0,0,-32294,0,0,0,4194,0,228142,0
228174,-416,78,8176,-18,17,29,9823,-3,3,6,0,185,12,25,144,0,6,0,0,0,0,0,0,-32294,0,0,0,4194,0,228169,0
228184,-410,64,8174,-14,15,26,9823,3,1,3,0,181,-19,25,144,0,6,0,0,0,0,0,0,-32295,0,0,0,4194,0,228175,0
228194,-390,90,8162,-24,19,29,9823,-3,3,2,0,178,-41,25,144,0,6,0,0,0,0,0,0,-32294,0,0,0,4194,0,228180,0
228204,-418,66,8176,-17,13,26,9823,-1,-1,1,0,167,-62,25,144,0,6,0,0,0,0,0,0,-32294,0,0,0,4193,0,228191,0
228214,-398,72,8156,-15,14,26,9822,5,2,0,1136,171,-54,25,144,0,6,0,0,0,0,0,0,-32294,0,0,0,4193,0,228194,0
228224,-408,68,8138,-17,11,31,9822,-3,2,0,3080,181,11,25,144,0,6,0,0,0,0,0,0,-32293,0,0,0,4194,0,228203,0
228234,-402,60,8168,-13,13,27,9823,5,-2,0,5032,178,-1,25,144,0,6,0,0,0,0,0,0,-32295,0,0,0,4193,0,228214,0
228244,-430,64,8186,-15,15,27,9823,6,3,3,5168,179,7,25,144,0,6,0,0,0,0,0,0,-32293,0,0,0,4194,0,228224,0
228254,-406,58,8174,-16,14,30,9824,6,3,4,5168,175,3,25,144,0,6,0,0,0,0,0,0,-32293,0,0,0,4194,0,228232,0
228264,-404,64,8164,-16,18,26,9822,0,5,9,5168,174,-9,25,144,0,6,0,0,0,0,0,0,-32294,0,0,0,4194,0,228260,0
228274,-444,62,8160,-20,18,29,9823,0,0,4,5160,171,-19,25,144,0,6,0,0,0,0,0,0,-32294,0,0,0,4194,0,228271,0
228284,-404,58,8172,-18,16,26,9823,1,-2,2,5168,172,-41,25,144,0,6,0,0,0,0,0,0,-32294,0,0,0,4194,0,228276,0
228294,-412,100,8156,-19,11,26,9822,-3,1,0,5160,178,-21,25,144,0,6,0,0,0,0,0,0,-32294,0,0,0,4194,0,228283,0
228304,-418,84,8162,-17,15,30,9823,-2,0,4,5184,180,-12,25,144,0,6,0,0,0,0,0,0,-32294,0,0,0,4193,0,228289,0
228314,-386,68,8166,-14,17,29,9823,-1,2,0,5168,180,-17,25,144,0,6,0,0,0,0,0,0,-32292,0,0,0,4194,0,228304,0
228324,-402,68,8160,-19,15,27,9822,-5,0,2,5168,175,-16,25,144,0,6,0,0,0,0,0,0,-32294,0,0,0,4194,0,228306,0
228334,-408,82,8160,-18,14,26,9822,-3,4,3,5184,177,-56,25,144,0,6,0,0,0,0,0,0,-32293,0,0,0,4192,0,228314,0
228344,-394,52,8172,-18,20,25,9823,0,3,5,5160,176,-68,25,144,0,6,0,0,0,0,0,0,-32293,0,0,0,4194,0,228325,0
228354,-402,82,8156,-14,18,22,9822,-3,7,1,5168,176,-48,25,144,0,6,0,0,0,0,0,0,-32294,0,0,0,4194,0,228332,0
228364,-410,62,8180,-17,15,29,9823,3,-1,5,5168,170,-86,25,144,0,6,0,0,0,0,0,0,-32295,0,0,0,4194,0,228343,0
228374,-416,108,8160,-19,18,29,9823,0,0,4,5168,169,-68,25,144,0,6,0,0,0,0,0,0,-32295,0,0,0,4193,0,228355,0
228384,-416,92,8182,-17,15,26,9822,0,-5,2,5160,174,-54,25,144,0,6,0,0,0,0,0,0,-32294,0,0,0,4193,0,228363,0
228394,-390,62,8188,-16,14,25,9823,7,0,6,5168,175,-23,25,144,0,6,0,0,0,0,0,0,-32294,0,0,0,4194,0,228374,0
228404,-416,68,8168,-18,11,25,9823,-1,1,2,5160,173,-15,25,144,0,6,0,0,0,0,0,0,-32295,0,0,0,4193,0,228384,0
228414,-408,72,8154,-17,19,27,9824,0,-2,1,5160,171,-34,25,144,0,6,0,0,0,0,0,0,-32295,0,0,0,4193,0,228392,0
228424,-396,82,8166,-16,18,24,9823,1,2,2,5168,172,-29,25,144,0,6,0,0,0,0,0,0,-32294,0,0,0,4194,0,228404,0
228434,-412,64,8178,-15,24,26,9823,5,2,3,5168,170,-46,25,144,0,6,0,0,0,0,0,0,-32295,0,0,0,4193,0,228413,0
228444,-410,88,8168,-16,17,27,9823,-1,0,6,5160,173,-40,25,144,0,6,0,0,0,0,0,0,-32294,0,0,0,4193,0,228424,0
228454,-408,66,8158,-15,14,26,9822,-7,-3,1,5160,172,-19,25,144,0,6,0,0,0,0,0,0,-32294,0,0,0,4194,0,228432,0
228464,-432,74,8136,-17,10,26,9823,1,1,6,5168,171,-20,25,144,0,6,0,0,0,0,0,0,-32294,0,0,0,4193,0,228443,0
228474,-418,62,8160,-18,15,26,9824,0,-4,4,5168,174,11,25,144,0,6,0,0,0,0,0,0,-32296,0,0,0,4193,0,228462,0
228484,-460,72,8172,-14,15,27,9823,-3,1,1,5160,176,-10,25,144,0,6,0,0,0,0,0,0,-32295,0,0,0,4194,0,228466,0
228494,-410,62,8154,-18,14,26,9822,-7,0,8,5168,178,6,25,144,0,6,0,0,0,0,0,0,-32294,0,0,0,4193,0,228473,0
228504,-414,76,8158,-15,15,26,9823,-5,-3,3,5160,170,-31,25,144,0,6,0,0,0,0,0,0,-32294,0,0,0,4194,0,228482,0
228514,-424,80,8186,-15,15,23,9823,-1,0,4,5160,177,-19,25,144,0,6,0,0,0,0,0,0,-32294,0,0,0,4193,0,228492,0
228524,-412,70,8140,-16,13,29,9823,5,3,4,5160,177,-2,25,144,0,6,0,0,0,0,0,0,-32294,0,0,0,4194,0,228503,0
228534,-376,78,8152,-18,17,25,9823,-1,5,-1,5168,180,-13,25,144,0,6,0,0,0,0,0,0,-32294,0,0,0,4195,0,228517,0
228544,-416,62,8182,-18,19,29,9821,-6,1,4,5168,175,-22,25,144,0,6,0,0,0,0,0,0,-32294,0,0,0,4195,0,228544,0
228554,-404,62,8186,-16,13,25,9824,2,1,1,5160,178,-37,25,144,0,6,0,0,0,0,0,0,-32294,0,0,0,4194,0,228549,0
228564,-402,54,8200,-15,14,29,9823,-6,-1,3,5168,176,-42,25,144,0,6,0,0,0,0,0,0,-32294,0,0,0,4195,0,228554,0
228574,-410,70,8176,-15,12,25,9823,0,4,1,5168,173,-43,25,144,0,6,0,0,0,0,0,0,-32294,0,0,0,4194,0,228569,0
228584,-386,52,8176,-18,13,27,9822,-6,-2,1,5176,171,-47,25,144,0,6,0,0,0,0,0,0,-32295,0,0,0,4194,0,228577,0
228594,-428,76,8176,-9,20,28,9823,0,1,1,5168,176,-32,25,144,0,6,0,0,0,0,0,0,-32294,0,0,0,4194,0,228579,0
228604,-406,74,8168,-21,17,27,9823,4,-2,1,5176,180,-7,25,144,0,6,0,0,0,0,0,0,-32294,0,0,0,4194,0,228584,0
228614,-388,76,8148,-15,15,29,9822,-4,2,1,5160,180,-10,25,144,0,6,0,0,0,0,0,0,-32294,0,0,0,4194,0,228593,0
228624,-398,46,8170,-15,13,24,9823,0,3,2,5168,172,-34,25,144,0,6,0,0,0,0,0,0,-32294,0,0,0,4194,0,228602,0
228634,-422,74,8146,-19,14,26,9822,-7,-5,-1,5168,173,-29,25,144,0,6,0,0,0,0,0,0,-32294,0,0,0,4194,0,228612,0
228644,-448,72,8170,-21,14,25,9822,0,3,6,5168,173,-37,25,144,0,6,0,0,0,0,0,0,-32293,0,0,0,4194,0,228622,0
228654,-404,62,8170,-17,11,23,9823,-5,-4,1,5160,179,0,25,144,0,6,0,0,0,0,0,0,-32294,0,0,0,4194,0,228633,0
228664,-420,70,8152,-16,16,26,9822,0,-4,4,5168,181,-28,25,144,0,6,0,0,0,0,0,0,-32294,0,0,0,4193,0,228644,0
228674,-398,88,8156,-14,19,29,9823,-3,-4,5,5168,178,-15,25,144,0,6,0,0,0,0,0,0,-32294,0,0,0,4193,0,228655,0
228684,-402,54,8166,-20,14,23,9822,-6,-2,4,5168,181,-27,25,144,0,6,0,0,0,0,0,0,-32294,0,0,0,4193,0,228669,0
228694,-390,56,8170,-14,14,26,9823,0,0,2,5168,175,-26,25,144,0,6,0,0,0,0,0,0,-32294,0,0,0,4194,0,228674,0
228704,-412,72,8186,-17,10,24,9823,0,-1,2,5168,172,-47,25,144,0,6,0,0,0,0,0,0,-32293,0,0,0,4194,0,228683,0
228714,-434,66,8162,-16,13,27,9823,3,-1,2,5168,171,-63,25,144,0,6,0,0,0,0,0,0,-32294,0,0,0,4194,0,228694,0
228724,-406,92,8144,-15,16,27,9823,-3,-1,3,5168,175,-41,25,144,0,6,0,0,0,0,0,0,-32293,0,0,0,4194,0,228704,0
228734,-398,80,8180,-15,19,27,9821,-5,-8,3,5160,174,-47,25,144,0,6,0,0,0,0,0,0,-32294,0,0,0,4194,0,228714,0
228744,-410,68,8142,-17,11,27,9823,3,0,5,5168,173,-23,25,144,0,6,0,0,0,0,0,0,-32293,0,0,0,4194,0,228727,0
228754,-412,82,8168,-17,15,24,9823,-2,4,0,5168,170,-70,25,144,0,6,0,0,0,0,0,0,-32294,0,0,0,4195,0,228735,0
228764,-406,50,8146,-14,14,25,9823,2,-1,4,5168,170,-28,25,144,0,6,0,0,0,0,0,0,-32294,0,0,0,4194,0,228743,0
228774,-392,90,8166,-23,17,26,9822,-1,1,5,5168,173,-7,25,144,0,6,0,0,0,0,0,0,-32294,0,0,0,4194,0,228755,0
228784,-456,66,8188,-15,16,24,9823,1,-1,6,5160,174,24,25,144,0,6,0,0,0,0,0,0,-32294,0,0,0,4194,0,228762,0
228794,-386,84,8158,-20,12,24,9823,1,-1,3,5168,168,-12,25,144,0,6,0,0,0,0,0,0,-32295,0,0,0,4194,0,228772,0
228804,-402,96,8146,-14,14,25,9822,-5,-2,2,5160,167,-34,25,144,0,6,0,0,0,0,0,0,-32294,0,0,0,4194,0,228782,0
228814,-396,68,8162,-19,18,24,9823,1,-2,3,5160,172,-40,25,144,0,6,0,0,0,0,0,0,-32294,0,0,0,4194,0,228793,0
228824,-390,68,8152,-16,18,31,9823,0,-1,4,5168,179,-7,25,144,0,6,0,0,0,0,0,0,-32294,0,0,0,4193,0,228807,0
228834,-422,54,8168,-21,16,27,9823,4,-1,1,5184,182,-15,25,144,0,6,0,0,0,0,0,0,-32294,0,0,0,4193,0,228814,0
228844,-420,72,8164,-20,13,27,9822,-5,3,3,5168,182,-12,25,144,0,6,0,0,0,0,0,0,-32293,0,0,0,4194,0,228831,0
228854,-416,76,8184,-15,14,27,9824,3,1,1,5160,185,-18,25,144,0,6,0,0,0,0,0,0,-32295,0,0,0,4194,0,228834,0
228864,-416,80,8166,-21,18,28,9823,0,0,3,5168,177,-20,25,144,0,6,0,0,0,0,0,0,-32293,0,0,0,4194,0,228844,0
228874,-408,56,8156,-19,20,29,9822,0,-3,6,5168,174,-32,25,144,0,6,0,0,0,0,0,0,-32293,0,0,0,4194,0,228852,0
228884,-404,84,8156,-18,12,23,9823,0,1,0,5168,173,-58,25,144,0,6,0,0,0,0,0,0,-32294,0,0,0,4194,0,228863,0
228894,-410,66,8154,-13,17,21,9823,1,1,4,5160,175,-34,25,144,0,6,0,0,0,0,0,0,-32293,0,0,0,4194,0,228878,0
228904,-416,64,8160,-17,15,27,9825,12,10,-2,5160,172,-17,25,144,0,6,0,0,0,0,0,0,-32295,0,0,0,4194,0,228883,0
228914,-406,58,8168,-16,16,30,9823,2,2,2,5160,174,11,25,144,0,6,0,0,0,0,0,0,-32294,0,0,0,4193,0,228892,0
228924,-394,72,8172,-17,18,23,9822,-3,-4,3,5160,178,7,25,144,0,6,0,0,0,0,0,0,-32295,0,0,0,4194,0,228905,0
228934,-404,66,8176,-16,15,25,9823,0,-1,4,5160,179,0,25,144,0,6,0,0,0,0,0,0,-32295,0,0,0,4194,0,228912,0
228944,-432,72,8158,-15,9,25,9822,-6,-3,6,5168,182,1,25,144,0,6,0,0,0,0,0,0,-32295,0,0,0,4194,0,228922,0
228954,-420,82,8170,-16,12,30,9823,-1,1,1,5160,176,-10,25,144,0,6,0,0,0,0,0,0,-32294,0,0,0,4194,0,228939,0
228964,-448,78,8182,-16,16,26,9823,-5,1,2,5168,178,10,25,144,0,6,0,0,0,0,0,0,-32294,0,0,0,4194,0,228944,0
228974,-392,54,8162,-17,14,29,9823,-1,-2,6,5168,180,-3,25,144,0,6,0,0,0,0,0,0,-32293,0,0,0,4194,0,228952,0
228984,-406,76,8154,-19,13,25,9823,1,1,0,5160,180,-39,25,144,0,6,0,0,0,0,0,0,-32295,0,0,0,4193,0,228972,0
228994,-404,54,8162,-21,16,27,9821,-6,-3,3,5160,176,-36,25,144,0,6,0,0,0,0,0,0,-32294,0,0,0,4193,0,228978,0
229004,-416,82,8182,-16,21,25,9823,7,0,3,5168,170,-56,25,144,0,6,0,0,0,0,0,0,-32295,0,0,0,4194,0,228987,0
229014,-390,64,8172,-16,15,25,9821,-4,-1,-3,5168,167,-36,25,144,0,6,0,0,0,0,0,0,-32293,0,0,0,4194,0,228994,0
229024,-412,96,8184,-14,10,27,9823,-7,4,6,5168,172,-62,25,144,0,6,0,0,0,0,0,0,-32295,0,0,0,4194,0,229006,0
229034,-424,56,8150,-17,19,27,9823,0,0,3,5184,173,-35,25,144,0,6,0,0,0,0,0,0,-32294,0,0,0,4193,0,229015,0
229044,-392,56,8168,-19,16,25,9823,-5,0,3,5168,171,-50,25,144,0,6,0,0,0,0,0,0,-32293,0,0,0,4194,0,229022,0
229054,-390,64,8184,-21,18,25,9823,1,0,1,5160,167,-82,25,144,0,6,0,0,0,0,0,0,-32294,0,0,0,4194,0,229032,0
229064,-418,96,8186,-16,18,25,9823,4,2,2,5168,170,-61,25,144,0,6,0,0,0,0,0,0,-32294,0,0,0,4194,0,229082,0
229074,-406,72,8160,-16,18,27,9823,0,5,3,5168,171,-46,25,144,0,6,0,0,0,0,0,0,-32294,0,0,0,4195,0,229089,0
229084,-426,44,8176,-15,14,25,9824,6,-2,1,5168,172,-33,25,144,0,6,0,0,0,0,0,0,-32294,0,0,0,4194,0,229094,0
229094,-408,50,8154,-14,18,22,9822,-4,-1,1,5168,170,-60,25,144,0,6,0,0,0,0,0,0,-32294,0,0,0,4194,0,229096,0
229104,-424,82,8172,-19,15,29,9823,1,-2,1,5168,170,-27,25,144,0,6,0,0,0,0,0,0,-32294,0,0,0,4194,0,229099,0
229114,-424,60,8168,-21,17,25,9824,1,-6,0,5168,175,-6,25,144,0,6,0,0,0,0,0,0,-32294,0,0,0,4194,0,229101,0
229124,-416,78,8184,-22,14,26,9823,0,2,6,5160,176,-13,25,144,0,6,0,0,0,0,0,0,-32294,0,0,0,4194,0,229104,0
229134,-406,64,8178,-21,12,25,9822,-4,-3,-1,5160,171,-29,25,144,0,6,0,0,0,0,0,0,-32295,0,0,0,4194,0,229113,0
229144,-412,44,8168,-17,9,27,9824,-1,4,3,5168,173,-53,25,144,0,6,0,0,0,0,0,0,-32294,0,0,0,4194,0,229128,0
229154,-416,86,8178,-17,20,23,9823,3,0,4,5168,174,-38,25,144,0,6,0,0,0,0,0,0,-32294,0,0,0,4194,0,229133,0
229164,-396,94,8158,-12,14,25,9823,-3,-2,2,5168,176,-12,25,144,0,6,0,0,0,0,0,0,-32295,0,0,0,4194,0,229145,0
229174,-432,74,8164,-12,12,23,9822,-2,0,1,5168,172,-49,25,144,0,6,0,0,0,0,0,0,-32294,0,0,0,4193,0,229183,0
229184,-420,70,8168,-17,19,30,9823,7,1,-1,5160,172,-76,25,144,0,6,0,0,0,0,0,0,-32294,0,0,0,4194,0,229204,0
229194,-414,48,8176,-17,11,29,9823,0,-3,2,5168,176,-70,25,144,0,6,0,0,0,0,0,0,-32294,0,0,0,4194,0,229220,0
229204,-446,66,8174,-16,21,27,9822,-7,-3,4,5160,176,-55,25,144,0,6,0,0,0,0,0,0,-32294,0,0,0,4194,0,229225,0
229214,-418,80,8164,-12,18,28,9823,1,1,4,5160,171,-32,25,144,0,6,0,0,0,0,0,0,-32294,0,0,0,4194,0,229234,0
229224,-414,54,8160,-14,12,28,9823,3,0,3,5160,170,-40,25,144,0,6,0,0,0,0,0,0,-32294,0,0,0,4193,0,229242,0
229234,-420,74,8152,-15,15,28,9822,-1,2,2,5160,175,-19,25,144,0,6,0,0,0,0,0,0,-32294,0,0,0,4194,0,229242,0
229244,-412,58,8182,-16,14,27,9822,-7,-6,4,5168,176,-4,25,144,0,6,0,0,0,0,0,0,-32294,0,0,0,4194,0,229242,0
229254,-406,68,8156,-19,16,29,9824,0,1,5,5168,173,-12,25,144,0,6,0,0,0,0,0,0,-32293,0,0,0,4195,0,229247,0
229264,-430,48,8166,-17,17,26,9824,4,0,-2,5168,167,-52,25,144,0,6,0,0,0,0,0,0,-32293,0,0,0,4194,0,229251,0
229274,-394,68,8174,-19,17,25,9823,3,0,4,5160,168,-82,25,144,0,6,0,0,0,0,0,0,-32293,0,0,0,4193,0,229264,0
229284,-410,54,8174,-21,14,28,9823,-3,-3,4,5160,167,-76,25,144,0,6,0,0,0,0,0,0,-32294,0,0,0,4195,0,229274,0
229294,-464,86,8156,-14,18,22,9822,-2,1,-2,5168,171,-45,25,144,0,6,0,0,0,0,0,0,-32294,0,0,0,4194,0,229276,0
229304,-396,58,8168,-20,15,28,9822,-3,0,5,5184,164,-52,25,144,0,6,0,0,0,0,0,0,-32293,0,0,0,4194,0,229282,0
229314,-378,68,8154,-20,19,25,9823,0,-4,5,5160,169,-60,25,144,0,6,0,0,0,0,0,0,-32293,0,0,0,4194,0,229297,0
229324,-382,88,8172,-19,18,27,9821,-7,-2,-1,5160,177,-27,25,144,0,6,0,0,0,0,0,0,-32293,0,0,0,4193,0,229303,0
229334,-422,52,8144,-18,15,25,9823,-1,4,0,5160,186,12,25,144,0,6,0,0,0,0,0,0,-32294,0,0,0,4193,0,229313,0
229344,-402,64,8166,-22,16,26,9824,5,-1,5,5168,184,3,25,144,0,6,0,0,0,0,0,0,-32294,0,0,0,4194,0,229324,0
229354,-408,90,8166,-23,22,26,9823,1,0,4,5168,179,-8,25,144,0,6,0,0,0,0,0,0,-32293,0,0,0,4193,0,229332,0
229364,-436,84,8160,-19,17,25,9823,1,2,3,5168,179,-15,25,144,0,6,0,0,0,0,0,0,-32294,0,0,0,4194,0,229342,0
229374,-400,88,8158,-17,16,30,9823,2,-5,5,5168,177,-13,25,144,0,6,0,0,0,0,0,0,-32294,0,0,0,4194,0,229358,0
229384,-390,76,8158,-16,11,23,9822,-4,-2,0,5160,178,2,25,144,0,6,0,0,0,0,0,0,-32293,0,0,0,4193,0,229363,0
229394,-432,70,8174,-16,18,31,9823,0,3,7,5160,174,-12,25,144,0,6,0,0,0,0,0,0,-32294,0,0,0,4194,0,229376,0
229404,-440,66,8170,-21,16,27,9823,5,5,6,5184,176,5,25,144,0,6,0,0,0,0,0,0,-32294,0,0,0,4193,0,229382,0
229414,-434,70,8158,-13,18,25,9823,-2,-1,3,5168,177,2,25,144,0,6,0,0,0,0,0,0,-32294,0,0,0,4193,0,229392,0
229424,-416,94,8168,-16,17,24,9824,3,-2,2,5168,175,17,25,144,0,6,0,0,0,0,0,0,-32295,0,0,0,4195,0,229403,0
229434,-386,84,8168,-14,19,30,9823,-2,-2,0,5160,174,-2,25,144,0,6,0,0,0,0,0,0,-32294,0,0,0,4194,0,229413,0
229444,-416,42,8162,-14,15,24,9823,4,-1,4,5160,179,-7,25,144,0,6,0,0,0,0,0,0,-32294,0,0,0,4195,0,229435,0
229454,-398,72,8170,-19,14,24,9824,8,0,6,5160,182,-7,25,144,0,6,0,0,0,0,0,0,-32294,0,0,0,4194,0,229437,0
229464,-398,50,8180,-22,16,26,9823,3,-2,6,5168,179,-17,25,144,0,6,0,0,0,0,0,0,-32295,0,0,0,4193,0,229442,0
229474,-416,82,8162,-17,17,27,9823,-1,0,3,5168,178,-35,25,144,0,6,0,0,0,0,0,0,-32296,0,0,0,4195,0,229454,0
229484,-448,58,8166,-18,18,28,9824,0,-7,2,5160,176,-27,25,144,0,6,0,0,0,0,0,0,-32293,0,0,0,4194,0,229463,0
229494,-396,70,8162,-13,15,26,9822,1,0,2,5160,180,-28,25,144,0,6,0,0,0,0,0,0,-32295,0,0,0,4193,0,229472,0
229504,-418,38,8188,-14,15,24,9823,0,-2,2,5160,178,17,25,144,0,6,0,0,0,0,0,0,-32294,0,0,0,4193,0,229484,0
229514,-430,60,8150,-14,15,27,9823,3,-1,0,5160,174,-5,25,144,0,6,0,0,0,0,0,0,-32293,0,0,0,4194,0,229492,0
229524,-392,76,8150,-15,14,25,9823,-4,-1,3,5168,174,4,25,144,0,6,0,0,0,0,0,0,-32295,0,0,0,4194,0,229502,0
229534,-414,82,8168,-19,18,22,9823,3,-1,2,5168,175,-7,25,144,0,6,0,0,0,0,0,0,-32295,0,0,0,4194,0,229513,0
229544,-398,50,8168,-19,15,25,9822,-2,0,3,5168,173,-18,25,144,0,6,0,0,0,0,0,0,-32295,0,0,0,4195,0,229523,0
229554,-394,74,8160,-21,14,27,9823,-2,0,5,5160,172,0,25,144,0,6,0,0,0,0,0,0,-32295,0,0,0,4194,0,229533,0
229564,-418,72,8140,-18,14,28,9824,4,-1,3,5168,177,-16,25,144,0,6,0,0,0,0,0,0,-32295,0,0,0,4194,0,229550,0
229574,-440,94,8168,-13,13,29,9824,0,0,3,5168,178,-12,25,144,0,6,0,0,0,0,0,0,-32294,0,0,0,4193,0,229561,0
229584,-424,56,8174,-15,19,29,9823,0,1,6,5160,177,-12,25,144,0,6,0,0,0,0,0,0,-32294,0,0,0,4194,0,229569,0
229594,-422,80,8170,-18,12,28,9823,5,-3,2,5160,171,-32,25,144,0,6,0,0,0,0,0,0,-32293,0,0,0,4193,0,229576,0
229604,-424,66,8162,-20,11,29,9823,-1,0,4,5176,166,-42,25,144,0,6,0,0,0,0,0,0,-32293,0,0,0,4194,0,229583,0
229614,-438,72,8170,-16,16,26,9823,1,-1,3,5160,167,-57,25,144,0,6,0,0,0,0,0,0,-32295,0,0,0,4194,0,229594,0
229624,-446,74,8170,-17,15,28,9823,4,4,4,5168,176,-10,25,144,0,6,0,0,0,0,0,0,-32292,0,0,0,4194,0,229605,0
229634,-418,82,8164,-17,14,31,9823,1,0,3,5160,181,-2,25,144,0,6,0,0,0,0,0,0,-32293,0,0,0,4194,0,229615,0
229644,-412,72,8160,-13,16,30,9823,4,1,-3,5160,176,-36,25,144,0,6,0,0,0,0,0,0,-32293,0,0,0,4194,0,229633,0
229654,-396,62,8154,-20,16,24,9823,5,-1,3,5168,170,-55,25,144,0,6,0,0,0,0,0,0,-32294,0,0,0,4195,0,229648,0
229664,-418,68,8158,-18,19,25,9823,3,1,3,5168,172,-41,25,144,0,6,0,0,0,0,0,0,-32294,0,0,0,4193,0,229655,0
229674,-446,62,8144,-19,15,24,9823,1,1,2,5168,176,5,25,144,0,6,0,0,0,0,0,0,-32294,0,0,0,4194,0,229657,0
229684,-406,90,8158,-12,13,26,9823,-2,1,5,5160,179,4,25,144,0,6,0,0,0,0,0,0,-32293,0,0,0,4193,0,229662,0
229694,-392,72,8156,-16,16,25,9822,-6,4,4,5168,178,-9,25,144,0,6,0,0,0,0,0,0,-32294,0,0,0,4194,0,229673,0
229704,-402,60,8156,-15,14,25,9822,0,2,4,5160,176,-4,25,144,0,6,0,0,0,0,0,0,-32294,0,0,0,4194,0,229682,0
229714,-402,100,8158,-13,17,25,9823,0,4,4,5160,178,10,25,144,0,6,0,0,0,0,0,0,-32294,0,0,0,4194,0,229693,0
229724,-392,66,8180,-17,15,27,9822,-7,0,3,5168,172,27,25,144,0,6,0,0,0,0,0,0,-32294,0,0,0,4194,0,229711,0
229734,-418,46,8168,-17,14,25,9823,-2,1,8,5168,171,-2,25,144,0,6,0,0,0,0,0,0,-32293,0,0,0,4193,0,229727,0
229744,-428,70,8172,-23,13,31,9822,-2,-4,3,5160,176,-4,25,144,0,6,0,0,0,0,0,0,-32294,0,0,0,4194,0,229730,0
229754,-394,60,8174,-15,14,30,9823,-4,-1,7,5160,178,-17,25,144,0,6,0,0,0,0,0,0,-32294,0,0,0,4194,0,229735,0
229764,-428,68,8172,-18,17,28,9823,-1,-2,2,5168,180,-27,25,144,0,6,0,0,0,0,0,0,-32294,0,0,0,4194,0,229742,0
229774,-404,58,8168,-18,13,24,9823,5,-2,4,5160,178,-46,25,144,0,6,0,0,0,0,0,0,-32294,0,0,0,4193,0,229754,0
229784,-408,74,8148,-18,13,22,9823,-2,5,4,5160,177,-52,25,144,0,6,0,0,0,0,0,0,-32294,0,0,0,4193,0,229765,0
229794,-414,74,8168,-12,12,27,9823,1,-1,1,5168,178,-39,25,144,0,6,0,0,0,0,0,0,-32294,0,0,0,4193,0,229773,0
229804,-390,82,8168,-14,18,22,9822,1,-3,1,5160,170,-37,25,144,0,6,0,0,0,0,0,0,-32294,0,0,0,4193,0,229783,0
229814,-414,80,8170,-15,16,23,9824,3,3,2,5168,176,-44,25,144,0,6,0,0,0,0,0,0,-32294,0,0,0,4195,0,229795,0
229824,-406,94,8166,-15,14,21,9823,6,1,0,5168,174,-29,25,144,0,6,0,0,0,0,0,0,-32294,0,0,0,4194,0,229823,0
229834,-410,86,8160,-19,18,27,9822,-4,-2,3,5152,183,-34,25,144,0,6,0,0,0,0,0,0,-32294,0,0,0,4194,0,229830,0
229844,-400,76,8166,-16,18,26,9823,0,0,2,5168,174,-25,25,144,0,6,0,0,0,0,0,0,-32294,0,0,0,4194,0,229835,0
229854,-430,58,8176,-21,17,22,9824,10,2,-1,5168,171,-32,25,144,0,6,0,0,0,0,0,0,-32294,0,0,0,4193,0,229845,0
229864,-442,66,8174,-19,24,31,9822,-1,0,1,5160,171,-3,25,144,0,6,0,0,0,0,0,0,-32294,0,0,0,4194,0,229848,0
229874,-426,78,8164,-20,18,24,9823,-2,2,0,5168,173,-18,25,144,0,6,0,0,0,0,0,0,-32294,0,0,0,4194,0,229855,0
229884,-414,74,8152,-18,20,24,9823,0,0,8,5160,175,-21,25,144,0,6,0,0,0,0,0,0,-32294,0,0,0,4194,0,229866,0
229894,-458,56,8160,-11,17,31,9824,4,4,3,5168,171,-70,25,144,0,6,0,0,0,0,0,0,-32294,0,0,0,4193,0,229887,0
229904,-404,68,8162,-15,15,25,9823,-1,0,1,5160,174,-47,25,144,0,6,0,0,0,0,0,0,-32294,0,0,0,4193,0,229898,0
229914,-426,64,8180,-15,21,25,9822,5,-3,4,5168,179,-35,25,144,0,6,0,0,0,0,0,0,-32294,0,0,0,4195,0,229900,0
229924,-418,86,8166,-21,13,32,9824,3,5,1,5168,180,-5,25,144,0,6,0,0,0,0,0,0,-32294,0,0,0,4194,0,229905,0
229934,-412,68,8170,-14,15,24,9822,0,-3,8,5160,180,15,25,144,0,6,0,0,0,0,0,0,-32294,0,0,0,4194,0,229912,0
229944,-408,66,8160,-18,15,27,9823,-5,2,5,5168,173,-28,25,144,0,6,0,0,0,0,0,0,-32294,0,0,0,4194,0,229926,0
229954,-398,80,8180,-16,15,26,9823,2,-5,3,5184,171,-28,25,144,0,6,0,0,0,0,0,0,-32293,0,0,0,4194,0,229935,0
229964,-404,80,8178,-15,14,23,9822,-5,0,5,5160,173,-33,25,144,0,6,0,0,0,0,0,0,-32294,0,0,0,4193,0,229952,0
229974,-420,78,8150,-15,16,27,9822,-1,-3,3,5168,172,-38,25,144,0,6,0,0,0,0,0,0,-32294,0,0,0,4194,0,229963,0
229984,-386,84,8168,-20,15,27,9823,-4,2,6,5160,169,-77,25,144,0,6,0,0,0,0,0,0,-32294,0,0,0,4194,0,229967,0
229994,-442,68,8144,-14,16,28,9823,0,-5,5,5168,165,-71,25,144,0,6,0,0,0,0,0,0,-32294,0,0,0,4194,0,229975,0
230004,-412,60,8142,-16,15,25,9823,-1,4,5,5160,173,-33,25,144,0,6,0,0,0,0,0,0,-32293,0,0,0,4195,0,229990,0
230014,-438,88,8162,-17,16,24,9822,-5,-5,5,5160,173,-23,25,144,0,6,0,0,0,0,0,0,-32294,0,0,0,4195,0,230008,0
230024,-408,68,8156,-18,10,24,9823,0,-2,3,5168,173,-12,25,144,0,6,0,0,0,0,0,0,-32294,0,0,0,4194,0,230013,0
230034,-390,72,8150,-12,15,26,9823,3,-2,6,5168,173,-68,25,144,0,6,0,0,0,0,0,0,-32294,0,0,0,4194,0,230017,0
230044,-406,70,8178,-16,21,21,9824,7,1,3,5168,172,-29,25,144,0,6,0,0,0,0,0,0,-32294,0,0,0,4194,0,230023,0
230054,-414,68,8160,-18,17,27,9823,3,-3,-2,5176,175,-28,25,144,0,6,0,0,0,0,0,0,-32294,0,0,0,4194,0,230032,0
230064,-390,80,8166,-17,12,28,9823,0,-2,0,5168,173,14,25,144,0,6,0,0,0,0,0,0,-32294,0,0,0,4193,0,230043,0
230074,-402,70,8156,-14,15,27,9822,-5,0,0,5168,178,9,25,144,0,6,0,0,0,0,0,0,-32293,0,0,0,4194,0,230052,0
230084,-404,74,8172,-15,18,30,9823,4,-1,3,5160,177,-30,25,144,0,6,0,0,0,0,0,0,-32294,0,0,0,4194,0,230064,0
230094,-422,76,8150,-11,17,28,9822,-2,-2,3,5168,178,-17,25,144,0,6,0,0,0,0,0,0,-32293,0,0,0,4194,0,230073,0
230104,-402,76,8180,-11,20,26,9822,0,0,1,5168,175,-20,25,144,0,6,0,0,0,0,0,0,-32294,0,0,0,4194,0,230083,0
230114,-414,80,8144,-15,17,25,9823,0,1,2,5160,179,5,25,144,0,6,0,0,0,0,0,0,-32294,0,0,0,4193,0,230093,0
230124,-404,86,8176,-16,19,24,9824,5,0,3,5168,179,7,25,144,0,6,0,0,0,0,0,0,-32294,0,0,0,4193,0,230107,0
230134,-422,80,8174,-18,12,27,9822,0,-1,3,5168,179,17,25,144,0,6,0,0,0,0,0,0,-32294,0,0,0,4194,0,230112,0
230144,-422,68,8170,-16,16,28,9822,-3,1,4,5160,175,34,25,144,0,6,0,0,0,0,0,0,-32295,0,0,0,4193,0,230141,0
230154,-408,60,8164,-20,18,30,9823,5,0,0,5160,171,20,25,144,0,6,0,0,0,0,0,0,-32293,0,0,0,4194,0,230163,0
230164,-400,66,8162,-11,13,27,9823,3,-3,7,5160,168,-9,25,144,0,6,0,0,0,0,0,0,-32294,0,0,0,4194,0,230167,0
230174,-414,62,8174,-17,21,21,9823,1,1,0,5168,171,7,25,144,0,6,0,0,0,0,0,0,-32294,0,0,0,4194,0,230169,0
230184,-394,90,8160,-16,16,27,9823,-1,-2,3,5160,173,-13,25,144,0,6,0,0,0,0,0,0,-32294,0,0,0,4193,0,230174,0
230194,-414,90,8174,-13,10,24,9823,3,-1,5,5160,175,4,25,144,0,6,0,0,0,0,0,0,-32295,0,0,0,4195,0,230177,0
230204,-428,46,8176,-16,16,27,9824,3,-1,5,5184,173,-5,25,144,0,6,0,0,0,0,0,0,-32293,0,0,0,4194,0,230183,0
230214,-414,76,8144,-10,17,21,9822,3,-5,6,5168,175,-1,25,144,0,6,0,0,0,0,0,0,-32295,0,0,0,4194,0,230197,0
230224,-414,74,8160,-17,12,24,9823,-1,-1,2,5160,177,16,25,144,0,6,0,0,0,0,0,0,-32294,0,0,0,4194,0,230203,0
230234,-428,68,8184,-15,17,25,9824,1,0,2,5160,176,10,25,144,0,6,0,0,0,0,0,0,-32294,0,0,0,4193,0,230213,0
230244,-398,96,8174,-12,13,30,9822,-5,0,4,5160,173,-1,25,144,0,6,0,0,0,0,0,0,-32295,0,0,0,4193,0,230224,0
230254,-406,46,8146,-16,19,27,9823,5,2,1,5168,174,-5,25,144,0,6,0,0,0,0,0,0,-32293,0,0,0,4194,0,230244,0
230264,-404,76,8182,-18,17,26,9823,-3,-3,5,5168,178,-10,25,144,0,6,0,0,0,0,0,0,-32293,0,0,0,4194,0,230266,0
230274,-392,72,8172,-22,15,30,9823,0,5,4,5168,179,-1,25,144,0,6,0,0,0,0,0,0,-32295,0,0,0,4194,0,230275,0
230284,-418,82,8174,-19,11,26,9823,-4,-1,4,5160,172,-43,25,144,0,6,0,0,0,0,0,0,-32294,0,0,0,4194,0,230278,0
230294,-402,78,8168,-14,13,29,9824,5,0,5,5168,168,-44,25,144,0,6,0,0,0,0,0,0,-32294,0,0,0,4193,0,230280,0
230304,-414,88,8180,-18,13,23,9824,7,-2,6,5168,171,-41,25,144,0,6,0,0,0,0,0,0,-32293,0,0,0,4194,0,230283,0
230314,-394,56,8172,-15,16,27,9822,0,-4,3,5160,167,-45,25,144,0,6,0,0,0,0,0,0,-32294,0,0,0,4193,0,230293,0
230324,-432,78,8178,-16,13,27,9823,-3,-1,3,5168,168,-32,25,144,0,6,0,0,0,0,0,0,-32294,0,0,0,4194,0,230319,0
230334,-408,72,8166,-17,14,25,9823,-2,-5,-1,5160,169,-40,25,144,0,6,0,0,0,0,0,0,-32294,0,0,0,4194,0,230363,0
230344,-440,78,8134,-18,12,23,9823,-4,-1,0,5168,176,-6,25,144,0,6,0,0,0,0,0,0,-32294,0,0,0,4194,0,230372,0
230354,-416,60,8170,-20,16,23,9824,6,0,0,5168,176,-4,25,144,0,6,0,0,0,0,0,0,-32294,0,0,0,4194,0,230379,0
230364,-422,70,8196,-18,14,29,9824,2,3,3,5168,173,-6,25,144,0,6,0,0,0,0,0,0,-32294,0,0,0,4194,0,230383,0
230374,-398,104,8154,-20,17,24,9823,-4,-2,8,5168,175,-23,25,144,0,6,0,0,0,0,0,0,-32294,0,0,0,4193,0,230383,0
230384,-424,56,8172,-18,17,24,9822,-4,-6,3,5160,180,-39,25,144,0,6,0,0,0,0,0,0,-32294,0,0,0,4193,0,230383,0
230394,-390,66,8166,-17,17,28,9823,0,-1,2,5168,179,-27,25,144,0,6,0,0,0,0,0,0,-32294,0,0,0,4194,0,230384,0
230404,-396,66,8166,-15,11,23,9822,-6,0,2,5160,179,-12,25,144,0,6,0,0,0,0,0,0,-32294,0,0,0,4193,0,230387,0
230414,-412,58,8158,-14,11,26,9823,2,1,2,5168,180,6,25,144,0,6,0,0,0,0,0,0,-32295,0,0,0,4194,0,230394,0
230424,-408,88,8134,-18,13,25,9822,0,1,4,5168,177,-25,25,144,0,6,0,0,0,0,0,0,-32294,0,0,0,4194,0,230403,0
230434,-434,70,8176,-23,15,31,9823,3,-1,-2,5160,177,-32,25,144,0,6,0,0,0,0,0,0,-32294,0,0,0,4194,0,230413,0
230444,-420,62,8182,-19,16,26,9822,-7,-2,5,5160,170,-36,25,144,0,6,0,0,0,0,0,0,-32294,0,0,0,4194,0,230422,0
230454,-416,62,8144,-15,15,26,9823,0,0,3,5160,170,-27,25,144,0,6,0,0,0,0,0,0,-32294,0,0,0,4194,0,230432,0
230464,-422,74,8180,-18,18,24,9823,1,-3,6,5168,170,2,25,144,0,6,0,0,0,0,0,0,-32294,0,0,0,4194,0,230465,0
230474,-414,68,8182,-17,15,22,9823,-3,0,0,5168,175,14,25,144,0,6,0,0,0,0,0,0,-32296,0,0,0,4195,0,230490,0
230484,-416,76,8180,-22,14,27,9822,-2,-1,0,5160,176,33,25,144,0,6,0,0,0,0,0,0,-32294,0,0,0,4194,0,230503,0
230494,-390,58,8134,-17,15,25,9822,-1,5,5,5168,172,-4,25,144,0,6,0,0,0,0,0,0,-32294,0,0,0,4194,0,230510,0
230504,-434,102,8178,-16,15,28,9822,0,1,5,5168,172,-29,25,144,0,6,0,0,0,0,0,0,-32293,0,0,0,4195,0,230518,0
230514,-452,68,8154,-13,16,29,9822,-1,-2,5,5168,174,-29,25,144,0,6,0,0,0,0,0,0,-32294,0,0,0,4195,0,230518,0
230524,-392,80,8166,-15,20,25,9823,-3,-2,3,5168,175,-21,25,144,0,6,0,0,0,0,0,0,-32294,0,0,0,4194,0,230524,0
230534,-372,66,8176,-19,13,26,9823,5,6,-1,5168,168,-39,25,144,0,6,0,0,0,0,0,0,-32293,0,0,0,4193,0,230526,0
230544,-424,58,8188,-17,16,27,9822,-3,0,3,5160,170,-61,25,144,0,6,0,0,0,0,0,0,-32294,0,0,0,4194,0,230531,0
230554,-420,60,8178,-14,17,24,9821,-8,0,3,5176,166,-73,25,144,0,6,0,0,0,0,0,0,-32293,0,0,0,4195,0,230534,0
230564,-410,72,8168,-15,17,22,9822,-9,-2,3,5168,174,-39,25,144,0,6,0,0,0,0,0,0,-32293,0,0,0,4194,0,230550,0
230574,-418,68,8166,-15,16,27,9822,-4,1,4,5168,171,-55,25,144,0,6,0,0,0,0,0,0,-32293,0,0,0,4193,0,230570,0
230584,-410,54,8172,-16,15,25,9823,-2,5,0,5160,169,-44,25,144,0,6,0,0,0,0,0,0,-32294,0,0,0,4194,0,230594,0
230594,-386,106,8174,-15,15,29,9823,-1,-2,5,5168,171,-54,25,144,0,6,0,0,0,0,0,0,-32294,0,0,0,4195,0,230604,0
230604,-408,90,8166,-15,20,28,9823,-1,0,3,5160,177,-42,25,144,0,6,0,0,0,0,0,0,-32294,0,0,0,4194,0,230606,0
230614,-442,62,8182,-16,21,27,9822,-5,-1,6,5168,178,-12,25,144,0,6,0,0,0,0,0,0,-32294,0,0,0,4194,0,230609,0
230624,-426,84,8240,-12,16,29,9823,0,4,1,5168,180,-22,25,144,0,6,0,0,0,0,0,0,-32293,0,0,0,4194,0,230616,0
230634,-388,72,8146,-24,15,28,9823,1,1,4,5184,178,-29,25,144,0,6,0,0,0,0,0,0,-32293,0,0,0,4194,0,230621,0
230644,-416,76,8208,-19,14,25,9823,-3,0,6,5168,182,-25,25,144,0,6,0,0,0,0,0,0,-32293,0,0,0,4194,0,230631,0
230654,-390,68,8212,-24,13,28,9823,0,1,1,5160,175,-17,25,144,0,6,0,0,0,0,0,0,-32294,0,0,0,4194,0,230638,0
230664,-400,46,8140,-16,16,27,9823,1,-1,7,5168,169,-36,25,144,0,6,0,0,0,0,0,0,-32294,0,0,0,4194,0,230647,0
230674,-380,98,8172,-13,14,27,9823,-3,-2,4,5160,171,-41,25,144,0,6,0,0,0,0,0,0,-32294,0,0,0,4194,0,230654,0
230684,-414,54,8170,-11,16,28,9823,5,1,2,5160,171,-27,25,144,0,6,0,0,0,0,0,0,-32294,0,0,0,4194,0,230681,0
230694,-394,40,8188,-17,17,29,9822,0,1,0,5168,174,-5,25,144,0,6,0,0,0,0,0,0,-32294,0,0,0,4193,0,230689,0
230704,-460,78,8168,-19,15,25,9823,0,1,3,5168,175,2,25,144,0,6,0,0,0,0,0,0,-32294,0,0,0,4193,0,230691,0
230714,-418,70,8136,-16,16,27,9823,2,0,5,5168,171,-29,25,144,0,6,0,0,0,0,0,0,-32294,0,0,0,4194,0,230696,0
230724,-414,52,8166,-19,17,25,9823,4,3,1,5160,172,-36,25,144,0,6,0,0,0,0,0,0,-32293,0,0,0,4194,0,230706,0
230734,-430,96,8202,-11,10,29,9823,-1,2,1,5184,172,-35,25,144,0,6,0,0,0,0,0,0,-32294,0,0,0,4193,0,230732,0
230744,-384,96,8154,-16,17,25,9822,-6,-1,5,5160,176,-27,25,144,0,6,0,0,0,0,0,0,-32294,0,0,0,4193,0,230742,0
230754,-376,88,8136,-21,11,27,9823,-7,1,1,5168,174,-41,25,144,0,6,0,0,0,0,0,0,-32294,0,0,0,4194,0,230749,0
230764,-428,44,8154,-22,14,29,9822,0,-3,3,5168,173,-41,25,144,0,6,0,0,0,0,0,0,-32294,0,0,0,4194,0,230751,0
230774,-434,38,8172,-10,19,26,9823,2,1,-1,5168,176,-32,25,144,0,6,0,0,0,0,0,0,-32294,0,0,0,4193,0,230757,0
230784,-468,80,8190,-17,17,28,9823,-1,0,2,5152,173,-36,25,144,0,6,0,0,0,0,0,0,-32294,0,0,0,4194,0,230765,0
230794,-416,68,8144,-13,18,24,9823,-6,0,3,5168,172,-40,25,144,0,6,0,0,0,0,0,0,-32295,0,0,0,4193,0,230779,0
230804,-456,32,8166,-15,12,26,9823,-3,-2,2,5176,168,-48,25,144,0,6,0,0,0,0,0,0,-32294,0,0,0,4194,0,230782,0
230814,-408,66,8162,-15,9,24,9823,0,0,4,5160,174,-1,25,144,0,6,0,0,0,0,0,0,-32294,0,0,0,4194,0,230796,0
230824,-386,46,8182,-12,14,22,9822,-5,-5,2,5168,180,20,25,144,0,6,0,0,0,0,0,0,-32294,0,0,0,4193,0,230805,0
230834,-382,64,8144,-16,11,27,9824,2,2,5,5168,172,-1,25,144,0,6,0,0,0,0,0,0,-32294,0,0,0,4194,0,230813,0
230844,-388,92,8178,-16,14,24,9823,0,2,6,5160,171,-42,25,144,0,6,0,0,0,0,0,0,-32295,0,0,0,4195,0,230826,0
230854,-384,72,8162,-15,17,27,9823,1,1,0,5176,176,-6,25,144,0,6,0,0,0,0,0,0,-32295,0,0,0,4194,0,230833,0
230864,-380,76,8154,-11,15,25,9823,0,0,5,5168,177,-3,25,144,0,6,0,0,0,0,0,0,-32295,0,0,0,4194,0,230850,0
230874,-402,56,8172,-17,20,27,9823,1,0,2,5168,175,5,25,144,0,6,0,0,0,0,0,0,-32293,0,0,0,4195,0,230855,0
230884,-390,82,8182,-21,22,26,9822,-2,-1,0,5168,171,-26,25,144,0,6,0,0,0,0,0,0,-32295,0,0,0,4193,0,230862,0
230894,-444,40,8166,-19,13,29,9821,-4,-6,1,5160,168,-57,25,144,0,6,0,0,0,0,0,0,-32294,0,0,0,4194,0,230887,0
230904,-444,74,8146,-13,15,27,9824,6,2,2,5184,170,-53,25,144,0,6,0,0,0,0,0,0,-32295,0,0,0,4193,0,230891,0
230914,-438,76,8170,-13,16,27,9823,0,2,0,5168,170,-49,25,144,0,6,0,0,0,0,0,0,-32294,0,0,0,4194,0,230901,0
230924,-402,54,8148,-20,11,26,9823,0,2,-2,5168,169,-45,25,144,0,6,0,0,0,0,0,0,-32294,0,0,0,4193,0,230910,0
230934,-432,82,8168,-14,18,28,9824,1,0,3,5160,170,-44,25,144,0,6,0,0,0,0,0,0,-32294,0,0,0,4194,0,230915,0
230944,-378,68,8174,-11,10,27,9821,-3,-6,2,5160,176,-40,25,144,0,6,0,0,0,0,0,0,-32294,0,0,0,4194,0,230924,0
230954,-374,102,8172,-16,12,26,9822,0,1,4,5168,173,-23,25,144,0,6,0,0,0,0,0,0,-32294,0,0,0,4194,0,230933,0
230964,-390,70,8164,-16,10,28,9822,-4,0,4,5168,166,-47,25,144,0,6,0,0,0,0,0,0,-32294,0,0,0,4194,0,230946,0
230974,-390,70,8192,-13,17,26,9823,0,2,0,5160,168,-44,25,144,0,6,0,0,0,0,0,0,-32294,0,0,0,4194,0,230952,0
230984,-440,60,8158,-14,18,25,9822,-2,-3,2,5160,172,-39,25,144,0,6,0,0,0,0,0,0,-32293,0,0,0,4193,0,230962,0
230994,-448,90,8136,-17,12,23,9823,-4,-3,5,5160,177,-24,25,144,0,6,0,0,0,0,0,0,-32294,0,0,0,4193,0,230978,0
231004,-420,84,8172,-17,11,26,9824,0,2,5,5160,171,-21,25,144,0,6,0,0,0,0,0,0,-32294,0,0,0,4194,0,230991,0
231014,-420,72,8208,-16,13,24,9823,5,-1,1,5168,170,-23,25,144,0,6,0,0,0,0,0,0,-32293,0,0,0,4195,0,230998,0
231024,-426,86,8174,-15,12,28,9823,4,1,3,5168,170,-37,25,144,0,6,0,0,0,0,0,0,-32294,0,0,0,4194,0,231013,0
231034,-390,96,8152,-16,14,27,9822,-5,-6,-2,5184,171,-45,25,144,0,6,0,0,0,0,0,0,-32294,0,0,0,4195,0,231018,0
231044,-390,88,8174,-15,17,27,9823,5,2,2,5160,174,-27,25,144,0,6,0,0,0,0,0,0,-32294,0,0,0,4194,0,231027,0
231054,-394,52,8158,-13,9,26,9823,0,-1,2,5176,169,-35,25,144,0,6,0,0,0,0,0,0,-32294,0,0,0,4194,0,231033,0
231064,-414,76,8172,-18,16,25,9824,2,3,6,5160,174,-51,25,144,0,6,0,0,0,0,0,0,-32294,0,0,0,4193,0,231044,0
231074,-416,72,8154,-16,15,29,9824,-1,3,7,5168,173,-46,25,144,0,6,0,0,0,0,0,0,-32294,0,0,0,4194,0,231052,0
231084,-406,106,8160,-17,17,23,9823,3,2,0,5160,177,-36,25,144,0,6,0,0,0,0,0,0,-32294,0,0,0,4193,0,231063,0
231094,-416,76,8182,-14,13,25,9824,4,1,3,5168,176,-21,25,144,0,6,0,0,0,0,0,0,-32294,0,0,0,4194,0,231090,0
231104,-418,74,8148,-14,14,28,9823,0,4,5,5160,174,-41,25,144,0,6,0,0,0,0,0,0,-32294,0,0,0,4194,0,231109,0
231114,-422,80,8190,-15,12,26,9823,2,0,6,5168,177,-21,25,144,0,6,0,0,0,0,0,0,-32294,0,0,0,4194,0,231111,0
231124,-392,64,8164,-17,13,24,9823,1,0,1,5168,175,-34,25,144,0,6,0,0,0,0,0,0,-32294,0,0,0,4194,0,231116,0
231134,-400,84,8150,-20,17,26,9822,-5,-2,3,5160,168,-63,25,144,0,6,0,0,0,0,0,0,-32294,0,0,0,4195,0,231118,0
231144,-372,78,8148,-14,16,30,9822,-1,3,3,5168,169,-78,25,144,0,6,0,0,0,0,0,0,-32294,0,0,0,4194,0,231125,0
231154,-384,84,8158,-12,14,26,9823,0,-4,0,5168,168,-72,25,144,0,6,0,0,0,0,0,0,-32294,0,0,0,4195,0,231132,0
231164,-378,84,8152,-16,18,25,9823,0,0,3,5168,173,-52,25,144,0,6,0,0,0,0,0,0,-32294,0,0,0,4194,0,231142,0
231174,-416,86,8228,-18,20,27,9823,-4,0,5,5168,171,-26,25,144,0,6,0,0,0,0,0,0,-32294,0,0,0,4195,0,231157,0
231184,-408,84,8168,-15,18,30,9823,-1,1,1,5184,171,-17,25,144,0,6,0,0,0,0,0,0,-32294,0,0,0,4195,0,231164,0
231194,-440,80,8112,-19,16,27,9823,-3,-1,6,5168,176,-10,25,144,0,6,0,0,0,0,0,0,-32293,0,0,0,4195,0,231192,0
231204,-1044,104,8608,0,-15,27,9823,-1,-3,4,5168,177,-26,25,144,0,6,0,0,0,0,0,0,-32294,0,0,0,4194,0,231200,0
231214,-1188,260,8812,-12,-17,16,9823,4,0,5,5160,178,-49,25,144,0,6,0,0,0,0,0,0,-32294,0,0,0,4193,0,231208,0
231224,-298,68,8358,-24,23,30,9823,-1,-4,1,5168,172,-49,25,144,0,6,0,0,0,0,0,0,-32294,0,0,0,4193,0,231210,0
231234,-558,302,8704,-27,-15,27,9823,3,-5,4,5160,173,-38,25,144,0,6,0,0,0,0,0,0,-32293,0,0,0,4194,0,231215,0
231244,-940,62,8694,-19,20,31,9823,0,-2,4,5160,179,-48,25,144,0,6,0,0,0,0,0,0,-32294,0,0,0,4195,0,231223,0
231254,-688,-32,7768,-17,-2,27,9823,-2,0,4,5160,177,-54,25,144,0,6,0,0,0,0,0,0,-32294,0,0,0,4194,0,231233,0
231264,-732,234,8082,-16,3,26,9822,-1,-1,6,5168,178,-45,25,144,0,6,0,0,0,0,0,0,-32294,0,0,0,4194,0,231246,0
231274,-338,-86,8260,-29,9,25,9823,-4,1,1,5152,172,-43,25,144,0,6,0,0,0,0,0,0,-32294,0,0,0,4194,0,231267,0
231284,-510,6,7722,-16,1,24,9823,-5,-1,1,5168,175,-15,25,144,0,6,0,0,0,0,0,0,-32294,0,0,0,4193,0,231290,0
231294,-16,-6,7950,-21,13,26,9824,0,-3,4,5160,174,-15,25,144,0,6,0,0,0,0,0,0,-32294,0,0,0,4195,0,231298,0
231304,-510,186,8122,-17,12,27,9823,-2,-1,3,5160,175,-20,25,144,0,6,0,0,0,0,0,0,-32294,0,0,0,4194,0,231304,0
231314,-190,60,8140,-13,18,28,9822,-6,0,5,5160,174,-36,25,144,0,6,0,0,0,0,0,0,-32294,0,0,0,4193,0,231311,0
231324,-420,64,7976,-17,6,26,9823,2,0,0,5168,179,-37,25,144,0,6,0,0,0,0,0,0,-32294,0,0,0,4194,0,231314,0
231334,-364,8,7902,-19,15,31,9823,4,1,1,5168,182,-24,25,144,0,6,0,0,0,0,0,0,-32293,0,0,0,4194,0,231318,0
231344,-282,112,8176,-21,22,27,9823,6,-2,4,5168,178,-30,25,144,0,6,0,0,0,0,0,0,-32293,0,0,0,4194,0,231322,0
231354,-234,190,8256,-20,18,24,9824,0,-5,1,5168,173,-48,25,144,0,6,0,0,0,0,0,0,-32295,0,0,0,4195,0,231337,0
231364,-486,122,8154,-20,5,30,9822,-2,-2,6,5168,169,-32,25,144,0,6,0,0,0,0,0,0,-32294,0,0,0,4193,0,231343,0
231374,-386,82,8308,-16,18,28,9823,0,0,3,5168,170,-25,25,144,0,6,0,0,0,0,0,0,-32294,0,0,0,4194,0,231353,0
231384,-272,76,8134,-19,13,24,9824,3,-5,-2,5160,174,-25,25,144,0,6,0,0,0,0,0,0,-32294,0,0,0,4194,0,231380,0
231394,-418,50,8212,-17,12,27,9821,-7,1,10,5168,179,-30,25,144,0,6,0,0,0,0,0,0,-32294,0,0,0,4194,0,231397,0
231404,-488,90,8266,-15,16,26,9822,0,-1,2,5160,179,-17,25,144,0,6,0,0,0,0,0,0,-32294,0,0,0,4195,0,231404,0
231414,-448,104,8234,-20,13,22,9822,-5,2,1,5168,190,-12,25,144,0,6,0,0,0,0,0,0,-32294,0,0,0,4194,0,231413,0
231424,-322,72,8120,-16,19,29,9823,5,2,1,5160,186,-23,25,144,0,6,0,0,0,0,0,0,-32294,0,0,0,4194,0,231426,0
231434,-442,108,8222,-16,21,26,9822,0,-1,3,5160,182,-59,25,144,0,6,0,0,0,0,0,0,-32292,0,0,0,4194,0,231435,0
231444,-376,82,8212,-14,18,25,9823,1,-3,7,5160,175,-46,25,144,0,6,0,0,0,0,0,0,-32295,0,0,0,4194,0,231442,0
231454,-484,70,8112,-22,13,25,9823,-4,-4,2,5184,175,-23,25,144,0,6,0,0,0,0,0,0,-32295,0,0,0,4193,0,231448,0
231464,-468,100,8194,-17,13,26,9822,-4,3,1,5160,178,-12,25,144,0,6,0,0,0,0,0,0,-32294,0,0,0,4194,0,231453,0
231474,-436,44,8208,-21,11,25,9822,5,3,3,5168,173,-29,25,144,0,6,0,0,0,0,0,0,-32295,0,0,0,4194,0,231462,0
231484,-426,92,8116,-21,11,27,9823,4,0,0,5168,179,-54,25,144,0,6,0,0,0,0,0,0,-32293,0,0,0,4194,0,231476,0
231494,-410,52,8136,-19,14,29,9823,3,2,5,5160,174,-57,25,144,0,6,0,0,0,0,0,0,-32294,0,0,0,4194,0,231480,0
231504,-370,48,8156,-15,14,24,9823,0,-1,2,5176,176,-24,25,144,0,6,0,0,0,0,0,0,-32294,0,0,0,4194,0,231487,0
231514,-416,66,8124,-19,11,21,9823,-3,-2,0,5160,172,-32,25,144,0,6,0,0,0,0,0,0,-32293,0,0,0,4194,0,231508,0
231524,-444,58,8136,-17,11,27,9822,-3,2,1,5168,170,-36,25,144,0,6,0,0,0,0,0,0,-32295,0,0,0,4194,0,231513,0
231534,-424,74,8140,-16,20,27,9823,2,1,3,5168,174,-53,25,144,0,6,0,0,0,0,0,0,-32294,0,0,0,4194,0,231524,0
231544,-442,70,8148,-17,19,27,9823,-3,-2,3,5160,169,-45,25,144,0,6,0,0,0,0,0,0,-32295,0,0,0,4194,0,231536,0
231554,-444,94,8124,-20,19,26,9823,7,1,1,5168,172,-34,25,144,0,6,0,0,0,0,0,0,-32295,0,0,0,4194,0,231539,0
231564,-424,76,8170,-14,18,25,9822,0,1,2,5168,168,-60,25,144,0,6,0,0,0,0,0,0,-32294,0,0,0,4194,0,231545,0
231574,-422,78,8202,-19,16,22,9823,3,-2,2,5168,170,-53,25,144,0,6,0,0,0,0,0,0,-32293,0,0,0,4194,0,231552,0
231584,-428,58,8142,-13,11,29,9823,1,1,-1,5160,177,-60,25,144,0,6,0,0,0,0,0,0,-32294,0,0,0,4195,0,231562,0
231594,-400,66,8166,-15,20,22,9822,0,0,7,5160,180,-22,25,144,0,6,0,0,0,0,0,0,-32294,0,0,0,4194,0,231572,0
231604,-396,48,8164,-15,18,29,9823,0,-3,1,5168,181,-23,25,144,0,6,0,0,0,0,0,0,-32294,0,0,0,4194,0,231590,0
231614,-410,58,8190,-18,13,26,9823,-3,-2,3,5160,177,-5,25,144,0,6,0,0,0,0,0,0,-32294,0,0,0,4194,0,231635,0
231624,-426,82,8130,-19,14,28,9822,-1,1,8,5160,174,-7,25,144,0,6,0,0,0,0,0,0,-32294,0,0,0,4195,0,231645,0
231634,-416,88,8188,-13,14,25,9823,-3,0,1,5168,174,-34,25,144,0,6,0,0,0,0,0,0,-32294,0,0,0,4194,0,231650,0
231644,-432,78,8160,-15,12,29,9823,5,3,4,5168,173,-47,25,144,0,6,0,0,0,0,0,0,-32294,0,0,0,4194,0,231660,0
231654,-394,78,8162,-14,17,30,9823,1,-1,2,5168,176,-65,25,144,0,6,0,0,0,0,0,0,-32294,0,0,0,4194,0,231660,0
231664,-388,84,8154,-14,16,28,9824,7,2,4,5168,176,-21,25,144,0,6,0,0,0,0,0,0,-32294,0,0,0,4194,0,231660,0
231674,-408,86,8174,-18,11,25,9823,-1,0,2,5168,177,0,25,144,0,6,0,0,0,0,0,0,-32294,0,0,0,4193,0,231665,0
231684,-404,90,8146,-30,14,25,9824,7,0,1,5160,173,-36,25,144,0,6,0,0,0,0,0,0,-32294,0,0,0,4193,0,231675,0
231694,-418,80,8154,-18,19,26,9823,-4,1,1,5168,167,-74,25,144,0,6,0,0,0,0,0,0,-32294,0,0,0,4194,0,231687,0
231704,-414,70,8188,-15,15,27,9823,0,2,6,5168,168,-106,25,144,0,6,0,0,0,0,0,0,-32294,0,0,0,4193,0,231689,0
231714,-398,76,8168,-13,14,30,9823,4,1,4,5168,177,-76,25,144,0,6,0,0,0,0,0,0,-32294,0,0,0,4194,0,231694,0
231724,-422,70,8156,-20,16,25,9824,-1,0,7,5168,180,-48,25,144,0,6,0,0,0,0,0,0,-32294,0,0,0,4194,0,231705,0
231734,-420,66,8180,-18,13,29,9823,0,-2,6,5160,175,-54,25,144,0,6,0,0,0,0,0,0,-32294,0,0,0,4194,0,231712,0
231744,-422,78,8188,-15,15,24,9822,0,-2,2,5160,165,-56,25,144,0,6,0,0,0,0,0,0,-32294,0,0,0,4194,0,231743,0
231754,-406,58,8186,-11,14,27,9823,1,0,3,5168,170,-40,25,144,0,6,0,0,0,0,0,0,-32294,0,0,0,4194,0,231754,0
231764,-414,76,8180,-16,13,22,9821,-12,-5,2,5168,169,-11,25,144,0,6,0,0,0,0,0,0,-32294,0,0,0,4194,0,231757,0
231774,-440,86,8178,-13,15,25,9823,1,-4,7,5168,170,-20,25,144,0,6,0,0,0,0,0,0,-32294,0,0,0,4195,0,231764,0
231784,-392,114,8162,-17,11,27,9823,-5,-2,2,5184,174,-31,25,144,0,6,0,0,0,0,0,0,-32293,0,0,0,4194,0,231772,0
231794,-384,84,8138,-17,19,29,9823,0,0,7,5160,176,-36,25,144,0,6,0,0,0,0,0,0,-32294,0,0,0,4194,0,231777,0
231804,-406,110,8168,-15,17,26,9823,0,-3,3,5168,174,-25,25,144,0,6,0,0,0,0,0,0,-32294,0,0,0,4194,0,231786,0
231814,-458,82,8168,-15,14,26,9824,4,-2,5,5168,173,-6,25,144,0,6,0,0,0,0,0,0,-32294,0,0,0,4194,0,231793,0
231824,-400,74,8146,-15,16,25,9823,0,-1,3,5160,175,-28,25,144,0,6,0,0,0,0,0,0,-32293,0,0,0,4194,0,231814,0
231834,-414,66,8172,-17,15,26,9823,3,1,2,5160,181,-37,25,144,0,6,0,0,0,0,0,0,-32294,0,0,0,4194,0,231824,0
231844,-434,94,8136,-18,17,25,9822,-1,2,2,5160,182,-38,25,144,0,6,0,0,0,0,0,0,-32293,0,0,0,4194,0,231831,0
231854,-428,58,8158,-11,13,30,9822,0,-2,3,5184,179,-48,25,144,0,6,0,0,0,0,0,0,-32293,0,0,0,4194,0,231836,0
231864,-412,72,8172,-20,15,27,9823,3,-3,5,5168,171,-45,25,144,0,6,0,0,0,0,0,0,-32293,0,0,0,4194,0,231853,0
231874,-364,74,8152,-18,13,25,9822,-5,2,5,5168,171,-48,25,144,0,6,0,0,0,0,0,0,-32294,0,0,0,4195,0,231863,0
231884,-406,84,8174,-14,14,27,9824,2,-2,0,5160,170,-22,25,144,0,6,0,0,0,0,0,0,-32294,0,0,0,4195,0,231870,0
231894,-382,64,8148,-18,19,33,9823,5,-1,4,5160,173,5,25,144,0,6,0,0,0,0,0,0,-32294,0,0,0,4193,0,231878,0
231904,-432,68,8184,-16,13,31,9822,0,2,5,5168,174,25,25,144,0,6,0,0,0,0,0,0,-32294,0,0,0,4195,0,231885,0
231914,-410,78,8142,-15,16,25,9824,-1,4,2,5160,174,21,25,144,0,6,0,0,0,0,0,0,-32294,0,0,0,4194,0,231920,0
231924,-416,70,8176,-20,18,29,9822,-5,-5,1,5168,183,16,25,144,0,6,0,0,0,0,0,0,-32293,0,0,0,4194,0,231927,0
231934,-416,80,8168,-16,12,27,9822,-1,0,3,5160,179,-29,25,144,0,6,0,0,0,0,0,0,-32294,0,0,0,4194,0,231945,0
231944,-392,50,8150,-20,13,25,9825,10,4,-2,5168,179,-44,25,144,0,6,0,0,0,0,0,0,-32294,0,0,0,4193,0,231950,0
231954,-406,68,8168,-16,17,27,9823,3,3,5,5184,171,-63,25,144,0,6,0,0,0,0,0,0,-32293,0,0,0,4194,0,231953,0
231964,-416,78,8166,-14,22,25,9823,3,1,2,5168,169,-50,25,144,0,6,0,0,0,0,0,0,-32295,0,0,0,4194,0,231957,0
231974,-366,76,8164,-17,12,24,9823,0,3,2,5176,170,-28,25,144,0,6,0,0,0,0,0,0,-32295,0,0,0,4194,0,231960,0
231984,-418,72,8176,-18,17,29,9822,0,-5,1,5160,171,-31,25,144,0,6,0,0,0,0,0,0,-32294,0,0,0,4194,0,231965,0
231994,-394,98,8166,-20,23,28,9823,4,0,4,5160,172,-22,25,144,0,6,0,0,0,0,0,0,-32295,0,0,0,4193,0,231987,0
232004,-420,64,8228,-18,13,26,9823,-3,0,6,5168,179,-18,25,144,0,6,0,0,0,0,0,0,-32294,0,0,0,4194,0,231989,0
232014,-346,84,8144,-20,16,21,9822,-6,-4,0,5168,185,24,25,144,0,6,0,0,0,0,0,0,-32293,0,0,0,4194,0,231995,0
232024,-392,72,8140,-21,16,26,9823,3,0,4,5168,182,-18,25,144,0,6,0,0,0,0,0,0,-32295,0,0,0,4193,0,232003,0
232034,-402,86,8194,-19,19,26,9823,-2,-2,-2,5168,181,-33,25,144,0,6,0,0,0,0,0,0,-32294,0,0,0,4194,0,232019,0
232044,-420,54,8232,-13,11,25,9822,-3,-4,5,5160,179,-44,25,144,0,6,0,0,0,0,0,0,-32294,0,0,0,4194,0,232028,0
232054,-434,72,8192,-18,14,24,9822,0,2,4,5168,181,-31,25,144,0,6,0,0,0,0,0,0,-32294,0,0,0,4193,0,232033,0
232064,-416,52,8124,-16,11,29,9822,1,-4,2,5168,174,-3,25,144,0,6,0,0,0,0,0,0,-32295,0,0,0,4194,0,232042,0
232074,-420,86,8162,-15,13,24,9822,-8,-3,5,5168,176,-4,25,144,0,6,0,0,0,0,0,0,-32295,0,0,0,4193,0,232057,0
232084,-436,60,8182,-15,18,29,9823,7,1,-1,5160,174,-12,25,144,0,6,0,0,0,0,0,0,-32295,0,0,0,4194,0,232062,0
232094,-378,56,8152,-17,16,26,9823,2,0,6,5168,179,9,25,144,0,6,0,0,0,0,0,0,-32295,0,0,0,4194,0,232073,0
232104,-412,100,8176,-16,20,23,9823,-1,1,4,5160,174,3,25,144,0,6,0,0,0,0,0,0,-32295,0,0,0,4194,0,232094,0
232114,-418,68,8156,-19,20,27,9822,-10,-2,-1,5168,167,3,25,144,0,6,0,0,0,0,0,0,-32292,0,0,0,4194,0,232098,0
232124,-352,88,8186,-15,10,23,9822,-4,2,3,5168,167,-22,25,144,0,6,0,0,0,0,0,0,-32292,0,0,0,4194,0,232110,0
232134,-394,62,8174,-16,13,25,9823,3,0,-1,5168,171,-21,25,144,0,6,0,0,0,0,0,0,-32293,0,0,0,4193,0,232118,0
232144,-428,72,8140,-17,20,27,9823,-1,-1,3,5168,173,-29,25,144,0,6,0,0,0,0,0,0,-32293,0,0,0,4193,0,232133,0
232154,-424,92,8176,-17,17,24,9823,-1,0,4,5160,176,7,25,144,0,6,0,0,0,0,0,0,-32293,0,0,0,4193,0,232138,0
232164,-422,64,8180,-19,10,19,9823,-2,0,0,5160,174,-15,25,144,0,6,0,0,0,0,0,0,-32294,0,0,0,4194,0,232148,0
232174,-372,60,8134,-19,14,25,9824,1,-1,7,5168,175,-13,25,144,0,6,0,0,0,0,0,0,-32293,0,0,0,4193,0,232153,0
232184,-384,102,8154,-15,18,28,9823,2,0,0,5168,178,27,25,144,0,6,0,0,0,0,0,0,-32294,0,0,0,4194,0,232166,0
232194,-416,50,8164,-17,17,26,9822,1,-2,5,5168,175,5,25,144,0,6,0,0,0,0,0,0,-32294,0,0,0,4194,0,232174,0
232204,-388,56,8162,-12,14,30,9824,7,-1,7,5168,169,2,25,144,0,6,0,0,0,0,0,0,-32294,0,0,0,4194,0,232183,0
232214,-412,70,8170,-13,10,25,9823,-2,-2,0,5160,171,-34,25,144,0,6,0,0,0,0,0,0,-32295,0,0,0,4194,0,232198,0
232224,-440,68,8174,-18,16,25,9823,0,1,2,5168,172,-45,25,144,0,6,0,0,0,0,0,0,-32294,0,0,0,4193,0,232203,0
232234,-398,50,8174,-15,17,27,9823,1,1,0,5160,177,-21,25,144,0,6,0,0,0,0,0,0,-32294,0,0,0,4194,0,232213,0
232244,-386,62,8156,-22,16,24,9823,1,1,4,5160,175,-55,25,144,0,6,0,0,0,0,0,0,-32294,0,0,0,4194,0,232236,0
232254,-384,86,8184,-17,17,30,9824,1,-6,7,5184,172,-50,25,144,0,6,0,0,0,0,0,0,-32294,0,0,0,4194,0,232241,0
232264,-474,64,8190,-17,18,26,9822,-6,2,2,5168,176,-28,25,144,0,6,0,0,0,0,0,0,-32294,0,0,0,4193,0,232251,0
232274,-400,72,8164,-17,14,26,9823,-3,3,-2,5160,177,-4,25,144,0,6,0,0,0,0,0,0,-32294,0,0,0,4194,0,232262,0
232284,-382,86,8178,-15,16,23,9824,3,-2,4,5160,173,-15,25,144,0,6,0,0,0,0,0,0,-32294,0,0,0,4194,0,232267,0
232294,-434,66,8166,-17,17,25,9821,-8,1,6,5168,170,-24,25,144,0,6,0,0,0,0,0,0,-32294,0,0,0,4195,0,232275,0
232304,-412,66,8246,-18,15,23,9823,1,6,6,5160,174,15,25,144,0,6,0,0,0,0,0,0,-32294,0,0,0,4194,0,232283,0
232314,-446,74,8210,-17,14,25,9823,-3,-1,1,5160,174,25,25,144,0,6,0,0,0,0,0,0,-32294,0,0,0,4193,0,232294,0
232324,-428,74,8198,-17,18,27,9824,3,3,3,5168,176,29,25,144,0,6,0,0,0,0,0,0,-32294,0,0,0,4195,0,232303,0
232334,-452,74,8212,-16,8,21,9823,0,-1,0,5160,168,-18,25,144,0,6,0,0,0,0,0,0,-32294,0,0,0,4195,0,232317,0
232344,-466,56,8074,-18,15,26,9823,1,2,5,5160,173,-18,25,144,0,6,0,0,0,0,0,0,-32294,0,0,0,4194,0,232340,0
232354,-342,72,8114,-16,17,29,9823,3,-4,6,5168,175,-15,25,144,0,6,0,0,0,0,0,0,-32293,0,0,0,4195,0,232354,0
232364,-362,88,8202,-12,15,25,9823,-3,-4,2,5168,176,-7,25,144,0,6,0,0,0,0,0,0,-32293,0,0,0,4194,0,232357,0
232374,-344,40,8108,-12,24,23,9823,1,-1,0,5168,173,-36,25,144,0,6,0,0,0,0,0,0,-32294,0,0,0,4194,0,232384,0
232384,-386,74,8220,-17,15,23,9823,-4,0,4,5184,170,-83,25,144,0,6,0,0,0,0,0,0,-32293,0,0,0,4194,0,232391,0
232394,-356,76,8028,-19,21,23,9823,0,0,3,5160,172,-103,25,144,0,6,0,0,0,0,0,0,-32294,0,0,0,4194,0,232402,0
232404,-404,28,8110,-23,26,29,9823,0,0,5,5160,170,-60,25,144,0,6,0,0,0,0,0,0,-32293,0,0,0,4194,0,232407,0
232414,-300,54,7998,-17,11,23,9823,2,3,0,5160,170,-50,25,144,0,6,0,0,0,0,0,0,-32294,0,0,0,4194,0,232425,0
232424,-478,58,8158,-19,25,29,9823,0,2,-1,5160,170,-47,25,144,0,6,0,0,0,0,0,0,-32294,0,0,0,4194,0,232447,0
232434,-528,48,8182,-19,4,31,9823,1,3,4,5184,173,-54,25,144,0,6,0,0,0,0,0,0,-32294,0,0,0,4193,0,232453,0
232444,-454,48,8094,-16,14,26,9823,4,0,4,5168,173,-44,25,144,0,6,0,0,0,0,0,0,-32293,0,0,0,4194,0,232463,0
232454,-458,76,8214,-12,8,26,9823,-1,2,8,5168,170,-31,25,144,0,6,0,0,0,0,0,0,-32294,0,0,0,4194,0,232468,0
232464,-426,48,8116,-15,11,25,9823,7,4,-4,5168,167,-90,25,144,0,6,0,0,0,0,0,0,-32294,0,0,0,4194,0,232468,0
232474,-374,76,8180,-18,16,26,9823,0,-1,0,5152,171,-82,25,144,0,6,0,0,0,0,0,0,-32293,0,0,0,4193,0,232477,0
232484,-392,98,8212,-15,14,23,9823,-1,-4,-1,5168,170,-73,25,144,0,6,0,0,0,0,0,0,-32294,0,0,0,4195,0,232483,0
232494,-400,44,8156,-18,19,29,9822,0,1,4,5168,176,4,25,144,0,6,0,0,0,0,0,0,-32294,0,0,0,4194,0,232492,0
232504,-422,56,8174,-14,20,27,9824,7,0,4,5168,176,25,25,144,0,6,0,0,0,0,0,0,-32294,0,0,0,4194,0,232497,0
232514,-384,82,8138,-12,11,25,9823,0,2,3,5168,183,49,25,144,0,6,0,0,0,0,0,0,-32294,0,0,0,4194,0,232507,0
232524,-432,72,8166,-17,14,26,9823,1,2,2,5160,187,41,25,144,0,6,0,0,0,0,0,0,-32294,0,0,0,4195,0,232512,0
232534,-422,56,8166,-16,11,27,9823,1,3,-1,5168,184,15,25,144,0,6,0,0,0,0,0,0,-32294,0,0,0,4193,0,232538,0
232544,-430,108,8156,-10,16,27,9823,3,0,7,5160,186,30,25,144,0,6,0,0,0,0,0,0,-32294,0,0,0,4193,0,232553,0
232554,-440,80,8158,-16,14,25,9824,4,-1,3,5160,182,43,25,144,0,6,0,0,0,0,0,0,-32293,0,0,0,4194,0,232557,0
232564,-394,92,8194,-17,11,26,9823,0,-2,1,5168,183,36,25,144,0,6,0,0,0,0,0,0,-32294,0,0,0,4194,0,232567,0
232574,-408,78,8178,-14,14,26,9823,0,1,1,5168,182,47,25,144,0,6,0,0,0,0,0,0,-32294,0,0,0,4194,0,232571,0
232584,-392,84,8118,-19,18,27,9822,4,2,0,5168,182,32,25,144,0,6,0,0,0,0,0,0,-32294,0,0,0,4194,0,232587,0
232594,-426,72,8134,-18,12,23,9823,-5,3,7,5160,182,40,25,144,0,6,0,0,0,0,0,0,-32295,0,0,0,4193,0,232594,0
232604,-468,66,8114,-12,16,28,9823,-1,-6,1,5176,180,58,25,144,0,6,0,0,0,0,0,0,-32295,0,0,0,4194,0,232597,0
232614,-422,76,8180,-17,12,24,9823,2,0,5,5168,181,44,25,144,0,6,0,0,0,0,0,0,-32293,0,0,0,4195,0,232602,0
232624,-406,70,8172,-19,17,27,9823,1,0,3,5160,171,29,25,144,0,6,0,0,0,0,0,0,-32293,0,0,0,4194,0,232611,0
232634,-374,62,8176,-15,12,25,9824,1,1,5,5184,170,-14,25,144,0,6,0,0,0,0,0,0,-32294,0,0,0,4194,0,232616,0
232644,-418,70,8184,-15,20,25,9823,-1,1,1,5168,171,-34,25,144,0,6,0,0,0,0,0,0,-32295,0,0,0,4195,0,232625,0
232654,-426,84,8160,-16,11,31,9823,-6,4,3,5160,169,-29,25,144,0,6,0,0,0,0,0,0,-32294,0,0,0,4193,0,232632,0
232664,-396,50,8158,-13,18,28,9823,-1,0,3,5168,169,-51,25,144,0,6,0,0,0,0,0,0,-32295,0,0,0,4193,0,232642,0
232674,-388,64,8152,-15,16,22,9823,-2,-1,0,5168,176,-28,25,144,0,6,0,0,0,0,0,0,-32295,0,0,0,4194,0,232665,0
232684,-422,94,8160,-14,16,28,9823,3,3,0,5160,178,-19,25,144,0,6,0,0,0,0,0,0,-32295,0,0,0,4193,0,232670,0
232694,-376,66,8180,-14,17,25,9823,9,0,0,5160,184,13,25,144,0,6,0,0,0,0,0,0,-32294,0,0,0,4194,0,232680,0
232704,-414,74,8148,-16,15,27,9824,0,2,8,5168,173,-2,25,144,0,6,0,0,0,0,0,0,-32294,0,0,0,4194,0,232685,0
232714,-444,84,8174,-18,9,29,9823,0,0,4,5168,171,-39,25,144,0,6,0,0,0,0,0,0,-32294,0,0,0,4193,0,232692,0
232724,-450,74,8160,-15,9,25,9824,6,4,2,5168,167,-96,25,144,0,6,0,0,0,0,0,0,-32295,0,0,0,4194,0,232707,0
232734,-490,66,8234,-15,11,25,9823,4,1,5,5184,174,-58,25,144,0,6,0,0,0,0,0,0,-32292,0,0,0,4195,0,232724,0
232744,-412,40,8148,-17,14,24,9823,4,2,4,5168,173,-36,25,144,0,6,0,0,0,0,0,0,-32295,0,0,0,4193,0,232740,0
232754,-470,84,8224,-12,11,26,9824,8,5,3,5184,173,4,25,144,0,6,0,0,0,0,0,0,-32295,0,0,0,4193,0,232761,0
232764,-372,56,8070,-14,14,28,9822,-8,1,1,5160,170,-36,25,144,0,6,0,0,0,0,0,0,-32294,0,0,0,4194,0,232766,0
232774,-432,62,8186,-14,15,27,9824,4,-1,0,5168,171,-22,25,144,0,6,0,0,0,0,0,0,-32294,0,0,0,4195,0,232777,0
232784,-414,62,8158,-15,15,23,9823,-1,3,0,5184,176,-46,25,144,0,6,0,0,0,0,0,0,-32295,0,0,0,4195,0,232784,0
232794,-368,58,8172,-16,18,24,9822,-2,-6,4,5168,175,-22,25,144,0,6,0,0,0,0,0,0,-32294,0,0,0,4193,0,232797,0
232804,-422,74,8210,-22,15,28,9823,1,2,2,5176,170,-39,25,144,0,6,0,0,0,0,0,0,-32294,0,0,0,4195,0,232804,0
232814,-420,78,8182,-14,18,27,9822,0,-4,2,5168,169,-30,25,144,0,6,0,0,0,0,0,0,-32295,0,0,0,4194,0,232806,0
232824,-404,64,8198,-17,16,27,9823,0,1,2,5160,170,-18,25,144,0,6,0,0,0,0,0,0,-32295,0,0,0,4193,0,232811,0
232834,-442,42,8170,-18,14,27,9823,1,1,5,5184,174,-38,25,144,0,6,0,0,0,0,0,0,-32295,0,0,0,4194,0,232821,0
232844,-426,100,8166,-19,14,26,9824,5,0,4,5168,169,-42,25,144,0,6,0,0,0,0,0,0,-32294,0,0,0,4194,0,232826,0
232854,-440,62,8180,-15,14,32,9822,0,-1,0,5176,169,-41,25,144,0,6,0,0,0,0,0,0,-32294,0,0,0,4195,0,232844,0
232864,-442,86,8174,-14,13,31,9822,-11,-2,5,5168,172,-39,25,144,0,6,0,0,0,0,0,0,-32294,0,0,0,4193,0,232865,0
232874,-408,68,8168,-19,13,28,9823,-5,-4,4,5160,174,-19,25,144,0,6,0,0,0,0,0,0,-32294,0,0,0,4194,0,232875,0
232884,-424,42,8172,-18,19,26,9823,-1,-6,8,5160,174,-46,25,144,0,6,0,0,0,0,0,0,-32294,0,0,0,4195,0,232905,0
232894,-394,84,8180,-16,14,26,9823,2,0,3,5160,167,-62,25,144,0,6,0,0,0,0,0,0,-32294,0,0,0,4193,0,232916,0
232904,-408,70,8174,-21,12,27,9823,0,3,5,5168,172,-50,25,144,0,6,0,0,0,0,0,0,-32294,0,0,0,4194,0,232919,0
232914,-400,70,8142,-13,19,28,9823,-1,-3,3,5168,172,-52,25,144,0,6,0,0,0,0,0,0,-32294,0,0,0,4194,0,232920,0
232924,-392,56,8170,-13,15,28,9823,1,-1,-1,5168,171,-40,25,144,0,6,0,0,0,0,0,0,-32294,0,0,0,4195,0,232924,0
232934,-422,82,8162,-20,17,23,9823,1,1,5,5160,170,-65,25,144,0,6,0,0,0,0,0,0,-32294,0,0,0,4194,0,232934,0
232944,-416,58,8172,-14,16,26,9823,0,-2,2,5168,174,-68,25,144,0,6,0,0,0,0,0,0,-32294,0,0,0,4194,0,232943,0
232954,-388,78,8174,-15,13,25,9823,0,0,4,5168,173,-50,25,144,0,6,0,0,0,0,0,0,-32294,0,0,0,4195,0,232947,0
232964,-426,80,8164,-18,14,26,9823,1,3,3,5168,172,-44,25,144,0,6,0,0,0,0,0,0,-32294,0,0,0,4194,0,232963,0
232974,-414,64,8146,-14,13,28,9822,4,-3,3,5168,169,-39,25,144,0,6,0,0,0,0,0,0,-32294,0,0,0,4193,0,232968,0
232984,-416,64,8160,-15,15,26,9822,-2,1,7,5168,168,-24,25,144,0,6,0,0,0,0,0,0,-32294,0,0,0,4193,0,232979,0
232994,-396,64,8162,-18,14,25,9822,1,-2,2,5168,169,-9,25,144,0,6,0,0,0,0,0,0,-32294,0,0,0,4194,0,232984,0
233004,-446,72,8202,-15,15,28,9823,0,3,3,5168,174,11,25,144,0,6,0,0,0,0,0,0,-32294,0,0,0,4194,0,232994,0
233014,-414,90,8148,-14,17,27,9822,-4,1,1,5160,172,-18,25,144,0,6,0,0,0,0,0,0,-32293,0,0,0,4194,0,233023,0
233024,-394,72,8146,-14,11,27,9822,-4,0,3,5168,175,-37,25,144,0,6,0,0,0,0,0,0,-32294,0,0,0,4193,0,233030,0
233034,-404,76,8150,-15,14,28,9823,1,1,2,5168,177,-39,25,144,0,6,0,0,0,0,0,0,-32293,0,0,0,4193,0,233044,0
233044,-422,80,8168,-16,16,31,9822,0,-2,2,5160,180,-13,25,144,0,6,0,0,0,0,0,0,-32293,0,0,0,4193,0,233070,0
233054,-392,74,8156,-17,13,28,9823,0,3,0,5168,177,-43,25,144,0,6,0,0,0,0,0,0,-32294,0,0,0,4193,0,233070,0
233064,-422,86,8148,-15,16,29,9823,4,1,3,5168,173,-20,25,144,0,6,0,0,0,0,0,0,-32294,0,0,0,4193,0,233075,0
233074,-442,62,8162,-18,14,25,9822,-1,2,1,5168,176,-24,25,144,0,6,0,0,0,0,0,0,-32293,0,0,0,4193,0,233082,0
233084,-372,58,8152,-15,17,23,9824,3,4,5,5168,176,-5,25,144,0,6,0,0,0,0,0,0,-32293,0,0,0,4193,0,233092,0
233094,-422,78,8154,-20,12,30,9824,3,-2,7,5160,174,-5,25,144,0,6,0,0,0,0,0,0,-32294,0,0,0,4195,0,233097,0
233104,-408,84,8140,-19,17,22,9823,0,-4,4,5160,173,-18,25,144,0,6,0,0,0,0,0,0,-32294,0,0,0,4195,0,233106,0
233114,-432,76,8138,-16,11,26,9822,-5,0,4,5168,172,-42,25,144,0,6,0,0,0,0,0,0,-32294,0,0,0,4193,0,233111,0
233124,-428,44,8164,-16,14,25,9822,-7,4,-1,5160,174,-41,25,144,0,6,0,0,0,0,0,0,-32294,0,0,0,4194,0,233121,0
233134,-404,80,8210,-19,15,28,9821,-16,-2,6,5176,173,-34,25,144,0,6,0,0,0,0,0,0,-32294,0,0,0,4195,0,233126,0
233144,-416,74,8146,-19,14,27,9823,1,4,6,5168,166,-9,25,144,0,6,0,0,0,0,0,0,-32294,0,0,0,4194,0,233137,0
233154,-416,72,8154,-14,16,25,9823,-1,0,1,5176,167,-29,25,144,0,6,0,0,0,0,0,0,-32294,0,0,0,4194,0,233142,0
233164,-454,122,8286,-15,10,26,9823,1,-3,7,5168,169,-21,25,144,0,6,0,0,0,0,0,0,-32294,0,0,0,4195,0,233151,0
233174,-386,108,8212,-18,19,29,9822,-8,-1,0,5160,174,-17,25,144,0,6,0,0,0,0,0,0,-32294,0,0,0,4194,0,233160,0
233184,-404,112,8192,-23,13,19,9823,0,4,1,5160,173,-18,25,144,0,6,0,0,0,0,0,0,-32294,0,0,0,4194,0,233181,0
233194,-372,56,8102,-13,17,32,9822,-5,0,-2,5168,169,-24,25,144,0,6,0,0,0,0,0,0,-32294,0,0,0,4195,0,233188,0
233204,-426,64,8150,-19,12,24,9824,2,4,1,5168,174,-31,25,144,0,6,0,0,0,0,0,0,-32294,0,0,0,4193,0,233198,0
233214,-386,72,8112,-18,11,23,9823,1,2,4,5160,173,-22,25,144,0,6,0,0,0,0,0,0,-32294,0,0,0,4194,0,233205,0
233224,-436,46,8164,-22,15,29,9824,7,-6,2,5160,179,-14,25,144,0,6,0,0,0,0,0,0,-32295,0,0,0,4193,0,233219,0
233234,-456,90,8196,-19,10,25,9822,1,10,3,5160,183,11,25,144,0,6,0,0,0,0,0,0,-32294,0,0,0,4195,0,233224,0
233244,-404,52,8172,-19,18,28,9821,1,3,1,5160,184,19,25,144,0,6,0,0,0,0,0,0,-32294,0,0,0,4194,0,233234,0
233254,-424,80,8168,-18,10,27,9822,1,2,2,5168,184,29,25,144,0,6,0,0,0,0,0,0,-32293,0,0,0,4194,0,233247,0
233264,-400,80,8156,-18,18,27,9823,-1,2,2,5168,170,4,25,144,0,6,0,0,0,0,0,0,-32293,0,0,0,4194,0,233257,0
233274,-402,82,8152,-15,16,23,9823,3,2,2,5160,171,-54,25,144,0,6,0,0,0,0,0,0,-32294,0,0,0,4193,0,233263,0
233284,-408,72,8168,-16,17,28,9824,3,-4,2,5184,173,-53,25,144,0,6,0,0,0,0,0,0,-32294,0,0,0,4194,0,233279,0
233294,-404,82,8144,-22,12,33,9823,9,2,7,5168,172,-44,25,144,0,6,0,0,0,0,0,0,-32295,0,0,0,4193,0,233284,0
233304,-418,38,8178,-20,15,26,9822,-2,-10,-1,5184,172,-31,25,144,0,6,0,0,0,0,0,0,-32294,0,0,0,4193,0,233294,0
233314,-408,50,8162,-15,14,27,9823,-4,-3,3,5168,169,-4,25,144,0,6,0,0,0,0,0,0,-32293,0,0,0,4194,0,233298,0
233324,-372,76,8156,-18,15,22,9824,2,4,2,5160,170,-39,25,144,0,6,0,0,0,0,0,0,-32293,0,0,0,4193,0,233314,0
233334,-408,46,8146,-20,12,26,9823,6,-2,0,5160,174,-2,25,144,0,6,0,0,0,0,0,0,-32292,0,0,0,4194,0,233324,0
233344,-446,94,8164,-20,15,27,9823,-1,0,5,5160,175,4,25,144,0,6,0,0,0,0,0,0,-32293,0,0,0,4193,0,233329,0
233354,-394,80,8166,-13,15,27,9823,3,-1,5,5168,175,3,25,144,0,6,0,0,0,0,0,0,-32293,0,0,0,4194,0,233346,0
233364,-406,54,8190,-15,15,27,9824,7,-1,6,5176,173,-20,25,144,0,6,0,0,0,0,0,0,-32294,0,0,0,4194,0,233351,0
233374,-390,84,8152,-17,17,26,9823,-2,-2,-1,5152,178,-30,25,144,0,6,0,0,0,0,0,0,-32294,0,0,0,4195,0,233362,0
233384,-424,98,8168,-20,14,28,9823,4,2,4,5192,176,-12,25,144,0,6,0,0,0,0,0,0,-32294,0,0,0,4193,0,233369,0
233394,-416,80,8150,-13,16,24,9822,2,-2,6,5168,175,-18,25,144,0,6,0,0,0,0,0,0,-32294,0,0,0,4194,0,233374,0
233404,-400,88,8162,-15,16,23,9822,-3,3,3,5176,168,-17,25,144,0,6,0,0,0,0,0,0,-32295,0,0,0,4193,0,233391,0
233414,-406,60,8138,-16,20,27,9822,-4,1,0,5160,173,2,25,144,0,6,0,0,0,0,0,0,-32294,0,0,0,4195,0,233396,0
233424,-442,78,8182,-18,16,28,9824,1,0,0,5160,173,15,25,144,0,6,0,0,0,0,0,0,-32294,0,0,0,4194,0,233405,0
233434,-408,66,8176,-11,15,27,9824,3,0,3,5160,170,7,25,144,0,6,0,0,0,0,0,0,-32294,0,0,0,4194,0,233415,0
233444,-406,64,8154,-14,19,29,9821,-3,-3,2,5160,162,-52,25,144,0,6,0,0,0,0,0,0,-32294,0,0,0,4195,0,233423,0
233454,-386,62,8156,-20,14,25,9822,-2,0,1,5168,165,-76,25,144,0,6,0,0,0,0,0,0,-32294,0,0,0,4194,0,233445,0
233464,-402,82,8158,-19,13,26,9824,4,-4,0,5168,169,-64,25,144,0,6,0,0,0,0,0,0,-32294,0,0,0,4193,0,233457,0
233474,-382,66,8160,-18,17,24,9823,0,-1,0,5168,174,-52,25,144,0,6,0,0,0,0,0,0,-32294,0,0,0,4193,0,233465,0
233484,-452,58,8166,-17,17,28,9823,0,4,5,5168,175,-29,25,144,0,6,0,0,0,0,0,0,-32295,0,0,0,4193,0,233468,0
233494,-414,72,8166,-21,14,26,9823,3,0,6,5160,176,-35,25,144,0,6,0,0,0,0,0,0,-32294,0,0,0,4194,0,233494,0
233504,-416,56,8160,-15,13,25,9823,0,-1,0,5176,182,-44,25,144,0,6,0,0,0,0,0,0,-32294,0,0,0,4192,0,233496,0
233514,-418,66,8160,-14,16,26,9823,1,-3,-2,5160,182,12,25,144,0,6,0,0,0,0,0,0,-32294,0,0,0,4194,0,233501,0
233524,-406,68,8156,-15,13,23,9823,1,2,5,5160,176,-11,25,144,0,6,0,0,0,0,0,0,-32294,0,0,0,4195,0,233511,0
233534,-430,60,8178,-17,13,27,9823,0,-5,4,5184,172,-12,25,144,0,6,0,0,0,0,0,0,-32294,0,0,0,4194,0,233516,0
233544,-408,76,8148,-15,16,27,9823,1,5,6,5160,170,-27,25,144,0,6,0,0,0,0,0,0,-32294,0,0,0,4194,0,233527,0
233554,-402,58,8166,-15,14,26,9824,2,-3,5,5168,167,-16,25,144,0,6,0,0,0,0,0,0,-32294,0,0,0,4193,0,233536,0
233564,-392,70,8178,-16,16,23,9822,-8,1,4,5168,169,5,25,144,0,6,0,0,0,0,0,0,-32294,0,0,0,4195,0,233543,0
233574,-414,68,8150,-16,17,29,9823,1,-1,8,5160,172,-15,25,144,0,6,0,0,0,0,0,0,-32294,0,0,0,4195,0,233558,0
233584,-418,82,8172,-17,18,25,9824,4,-3,5,5160,178,7,25,144,0,6,0,0,0,0,0,0,-32294,0,0,0,4193,0,233565,0
233594,-406,74,8166,-20,18,29,9823,3,-1,3,5168,180,7,25,144,0,6,0,0,0,0,0,0,-32294,0,0,0,4194,0,233599,0
233604,-412,46,8166,-14,18,22,9822,-1,0,4,5168,174,-17,25,144,0,6,0,0,0,0,0,0,-32294,0,0,0,4193,0,233610,0
233614,-410,84,8162,-14,15,28,9823,0,4,5,5160,171,-41,25,144,0,6,0,0,0,0,0,0,-32294,0,0,0,4193,0,233615,0
233624,-410,70,8160,-18,13,26,9823,-3,-2,5,5160,173,-33,25,144,0,6,0,0,0,0,0,0,-32294,0,0,0,4194,0,233618,0
233634,-420,90,8178,-15,14,26,9823,0,0,-1,5168,174,-12,25,144,0,6,0,0,0,0,0,0,-32294,0,0,0,4195,0,233625,0
233644,-446,64,8154,-15,12,28,9823,2,3,0,5160,178,1,25,144,0,6,0,0,0,0,0,0,-32293,0,0,0,4194,0,233630,0
233654,-420,72,8158,-22,15,25,9823,-2,-4,2,5168,173,-10,25,144,0,6,0,0,0,0,0,0,-32294,0,0,0,4194,0,233663,0
233664,-406,86,8170,-20,19,28,9823,-1,-3,0,5168,175,-70,25,144,0,6,0,0,0,0,0,0,-32294,0,0,0,4194,0,233670,0
233674,-396,94,8172,-13,11,27,9823,3,-3,1,5168,180,-81,25,144,0,6,0,0,0,0,0,0,-32293,0,0,0,4194,0,233675,0
233684,-420,52,8162,-23,17,27,9823,2,0,0,5160,184,-29,25,144,0,6,0,0,0,0,0,0,-32294,0,0,0,4194,0,233689,0
233694,-422,64,8168,-17,13,27,9822,2,3,4,5168,178,-45,25,144,0,6,0,0,0,0,0,0,-32294,0,0,0,4194,0,233704,0
233704,-402,88,8168,-13,17,26,9823,1,-6,7,5160,171,-21,25,144,0,6,0,0,0,0,0,0,-32294,0,0,0,4194,0,233713,0
233714,-408,72,8174,-26,18,30,9824,3,0,4,5168,175,-26,25,144,0,6,0,0,0,0,0,0,-32294,0,0,0,4194,0,233719,0
233724,-408,94,8188,-18,16,24,9823,-2,-2,2,5160,177,-8,25,144,0,6,0,0,0,0,0,0,-32294,0,0,0,4194,0,233729,0
233734,-420,76,8152,-21,11,31,9823,6,-4,3,5168,175,8,25,144,0,6,0,0,0,0,0,0,-32294,0,0,0,4194,0,233734,0
233744,-398,76,8178,-15,14,22,9823,0,3,2,5168,174,-2,25,144,0,6,0,0,0,0,0,0,-32293,0,0,0,4194,0,233744,0
233754,-426,80,8154,-19,14,27,9823,3,-2,4,5168,178,-14,25,144,0,6,0,0,0,0,0,0,-32293,0,0,0,4194,0,233749,0
233764,-428,54,8160,-19,20,27,9824,13,1,2,5168,177,-28,25,144,0,6,0,0,0,0,0,0,-32294,0,0,0,4194,0,233768,0
233774,-418,72,8152,-22,14,30,9823,3,1,3,5168,175,-39,25,144,0,6,0,0,0,0,0,0,-32293,0,0,0,4193,0,233775,0
233784,-420,82,8170,-20,12,25,9823,-2,3,-1,5160,166,-74,25,144,0,6,0,0,0,0,0,0,-32294,0,0,0,4193,0,233788,0
233794,-406,72,8156,-11,17,28,9822,3,-4,9,5160,170,-84,25,144,0,6,0,0,0,0,0,0,-32294,0,0,0,4194,0,233805,0
233804,-430,76,8170,-20,19,27,9824,3,5,2,5168,173,-74,25,144,0,6,0,0,0,0,0,0,-32294,0,0,0,4193,0,233816,0
233814,-416,64,8176,-18,19,26,9822,3,1,2,5168,176,-61,25,144,0,6,0,0,0,0,0,0,-32294,0,0,0,4194,0,233823,0
233824,-406,60,8166,-17,14,21,9823,-2,4,0,5168,177,-36,25,144,0,6,0,0,0,0,0,0,-32294,0,0,0,4194,0,233827,0
233834,-414,84,8152,-20,16,28,9823,3,-3,6,5160,180,-37,25,144,0,6,0,0,0,0,0,0,-32294,0,0,0,4194,0,233832,0
233844,-434,54,8134,-17,15,28,9823,1,1,4,5168,187,-21,25,144,0,6,0,0,0,0,0,0,-32292,0,0,0,4193,0,233842,0
233854,-444,74,8170,-15,15,30,9823,4,3,2,5176,182,-8,25,144,0,6,0,0,0,0,0,0,-32293,0,0,0,4193,0,233846,0
233864,-416,64,8154,-10,15,26,9823,3,-2,6,5168,176,-58,25,144,0,6,0,0,0,0,0,0,-32295,0,0,0,4193,0,233857,0
233874,-446,96,8182,-18,15,26,9822,-2,-1,0,5160,167,-59,25,144,0,6,0,0,0,0,0,0,-32294,0,0,0,4193,0,233865,0
233884,-392,36,8172,-21,12,26,9822,-3,-1,4,5160,168,-68,25,144,0,6,0,0,0,0,0,0,-32295,0,0,0,4195,0,233868,0
233894,-416,78,8176,-21,20,27,9823,2,-2,3,5168,170,-36,25,144,0,6,0,0,0,0,0,0,-32294,0,0,0,4194,0,233883,0
233904,-370,78,8170,-12,16,26,9823,0,-2,2,5160,167,-48,25,144,0,6,0,0,0,0,0,0,-32293,0,0,0,4194,0,233887,0
233914,-418,90,8156,-23,12,27,9823,0,-2,2,5168,164,-75,25,144,0,6,0,0,0,0,0,0,-32292,0,0,0,4194,0,233893,0
233924,-420,88,8172,-20,13,25,9823,0,1,2,5160,167,-86,25,144,0,6,0,0,0,0,0,0,-32294,0,0,0,4194,0,233916,0
233934,-422,58,8170,-16,14,27,9823,2,2,3,5168,171,-48,25,144,0,6,0,0,0,0,0,0,-32292,0,0,0,4193,0,233924,0
233944,-418,88,8146,-16,14,30,9822,0,-2,5,5168,177,-18,25,144,0,6,0,0,0,0,0,0,-32294,0,0,0,4193,0,233937,0
233954,-426,66,8162,-16,14,27,9822,-5,-3,3,5176,171,-10,25,144,0,6,0,0,0,0,0,0,-32292,0,0,0,4194,0,233944,0
233964,-436,58,8162,-18,11,26,9823,-1,0,2,5168,173,-28,25,144,0,6,0,0,0,0,0,0,-32292,0,0,0,4194,0,233947,0
233974,-402,58,8148,-13,14,24,9823,0,2,3,5160,175,-35,25,144,0,6,0,0,0,0,0,0,-32292,0,0,0,4194,0,233953,0
233984,-390,78,8174,-16,17,27,9823,4,3,-3,5160,177,-26,25,144,0,6,0,0,0,0,0,0,-32295,0,0,0,4194,0,233963,0
233994,-422,72,8154,-19,16,26,9822,-5,0,5,5160,180,-10,25,144,0,6,0,0,0,0,0,0,-32295,0,0,0,4194,0,233974,0
234004,-404,62,8150,-18,13,24,9823,6,-3,2,5168,174,1,25,144,0,6,0,0,0,0,0,0,-32295,0,0,0,4193,0,233984,0
234014,-406,84,8166,-19,14,24,9822,-4,2,1,5160,180,-7,25,144,0,6,0,0,0,0,0,0,-32292,0,0,0,4194,0,233992,0
234024,-438,54,8154,-16,14,25,9822,0,0,1,5168,175,-14,25,144,0,6,0,0,0,0,0,0,-32294,0,0,0,4193,0,234004,0
234034,-396,70,8184,-18,20,30,9822,-4,-4,0,5168,173,-30,25,144,0,6,0,0,0,0,0,0,-32295,0,0,0,4194,0,234013,0
234044,-390,90,8184,-15,15,24,9822,-1,-3,7,5160,168,-34,25,144,0,6,0,0,0,0,0,0,-32294,0,0,0,4194,0,234028,0
234054,-420,84,8174,-11,19,34,9822,-1,-1,1,5160,174,-6,25,144,0,6,0,0,0,0,0,0,-32294,0,0,0,4194,0,234037,0
234064,-400,64,8194,-17,9,26,9823,2,2,3,5160,174,-35,25,144,0,6,0,0,0,0,0,0,-32294,0,0,0,4194,0,234045,0
234074,-446,102,8182,-21,19,27,9823,0,1,0,5168,176,20,25,144,0,6,0,0,0,0,0,0,-32294,0,0,0,4194,0,234052,0
234084,-410,82,8184,-16,16,27,9823,2,-4,0,5160,174,-35,25,144,0,6,0,0,0,0,0,0,-32294,0,0,0,4195,0,234065,0
234094,-510,76,8098,-13,8,29,9822,0,2,4,5168,173,-24,25,144,0,6,0,0,0,0,0,0,-32294,0,0,0,4194,0,234073,0
234104,-410,100,8154,-17,13,24,9823,0,-2,0,5168,174,-22,25,144,0,6,0,0,0,0,0,0,-32293,0,0,0,4194,0,234083,0
234114,-444,88,8162,-18,7,28,9823,-1,1,6,5160,177,-32,25,144,0,6,0,0,0,0,0,0,-32294,0,0,0,4194,0,234104,0
234124,-456,66,8156,-19,14,25,9822,0,0,6,5168,180,-9,25,144,0,6,0,0,0,0,0,0,-32294,0,0,0,4194,0,234109,0
234134,-418,108,8142,-17,11,28,9824,-1,-4,3,5160,180,-15,25,144,0,6,0,0,0,0,0,0,-32294,0,0,0,4194,0,234117,0
234144,-416,90,8164,-22,11,27,9823,1,-3,5,5160,179,-7,25,144,0,6,0,0,0,0,0,0,-32294,0,0,0,4193,0,234147,0
234154,-396,60,8172,-18,14,26,9822,2,3,-2,5176,172,-8,25,144,0,6,0,0,0,0,0,0,-32294,0,0,0,4194,0,234155,0
234164,-422,84,8168,-13,19,27,9822,-4,1,3,5168,176,-3,25,144,0,6,0,0,0,0,0,0,-32293,0,0,0,4194,0,234157,0
234174,-424,46,8172,-12,18,25,9823,-2,2,2,5160,174,-10,25,144,0,6,0,0,0,0,0,0,-32294,0,0,0,4194,0,234193,0
234184,-406,56,8178,-14,15,28,9822,-1,3,2,5160,178,-30,25,144,0,6,0,0,0,0,0,0,-32294,0,0,0,4193,0,234207,0
234194,-410,64,8168,-21,19,23,9822,-8,-6,4,5168,176,-42,25,144,0,6,0,0,0,0,0,0,-32294,0,0,0,4194,0,234209,0
234204,-432,60,8164,-16,20,26,9822,-9,3,4,5168,175,-23,25,144,0,6,0,0,0,0,0,0,-32294,0,0,0,4194,0,234224,0
234214,-420,96,8162,-19,13,27,9823,2,4,0,5160,173,-35,25,144,0,6,0,0,0,0,0,0,-32294,0,0,0,4193,0,234247,0
234224,-404,68,8180,-13,14,26,9823,4,1,2,5168,173,-12,25,144,0,6,0,0,0,0,0,0,-32294,0,0,0,4194,0,234254,0
234234,-382,74,8190,-18,17,26,9822,-4,-2,2,5184,176,-18,25,144,0,6,0,0,0,0,0,0,-32294,0,0,0,4195,0,234261,0
234244,-426,62,8172,-18,12,26,9823,1,0,10,5160,175,-1,25,144,0,6,0,0,0,0,0,0,-32294,0,0,0,4194,0,234267,0
234254,-448,82,8154,-17,12,25,9823,5,2,3,5168,173,-18,25,144,0,6,0,0,0,0,0,0,-32293,0,0,0,4194,0,234299,0
234264,-392,76,8166,-16,9,27,9823,0,0,3,5168,176,-22,25,144,0,6,0,0,0,0,0,0,-32294,0,0,0,4195,0,234299,0
234274,-402,94,8172,-21,12,30,9823,3,-1,4,5168,173,-8,25,144,0,6,0,0,0,0,0,0,-32294,0,0,0,4194,0,234299,0
234284,-404,36,8152,-18,16,28,9823,-5,1,1,5184,179,-12,25,144,0,6,0,0,0,0,0,0,-32293,0,0,0,4194,0,234311,0
234294,-430,58,8162,-13,14,31,9822,-7,-1,7,5168,170,-11,25,144,0,6,0,0,0,0,0,0,-32294,0,0,0,4194,0,234321,0
234304,-394,68,8170,-20,15,24,9823,-4,-4,1,5168,170,-17,25,144,0,6,0,0,0,0,0,0,-32295,0,0,0,4194,0,234342,0
234314,-402,82,8172,-16,12,27,9823,-1,-2,2,5160,174,-24,25,144,0,6,0,0,0,0,0,0,-32294,0,0,0,4194,0,234352,0
234324,-392,60,8176,-14,17,27,9824,3,-2,6,5168,176,-17,25,144,0,6,0,0,0,0,0,0,-32294,0,0,0,4194,0,234352,0
234334,-400,88,8166,-18,14,26,9823,0,0,2,5168,178,-47,25,144,0,6,0,0,0,0,0,0,-32293,0,0,0,4194,0,234352,0
234344,-422,78,8174,-17,16,29,9823,0,-1,4,5168,175,-50,25,144,0,6,0,0,0,0,0,0,-32294,0,0,0,4194,0,234356,0
234354,-408,50,8176,-18,17,27,9823,1,-1,2,5160,176,-52,25,144,0,6,0,0,0,0,0,0,-32294,0,0,0,4193,0,234366,0
234364,-440,90,8156,-14,12,26,9823,1,-4,-4,5160,174,-27,25,144,0,6,0,0,0,0,0,0,-32293,0,0,0,4194,0,234366,0
234374,-416,84,8146,-20,12,27,9823,7,-3,5,5168,172,-24,25,144,0,6,0,0,0,0,0,0,-32294,0,0,0,4194,0,234371,0
234384,-392,94,8168,-18,17,27,9823,-2,-6,1,5184,169,-49,25,144,0,6,0,0,0,0,0,0,-32294,0,0,0,4194,0,234381,0
234394,-412,74,8166,-17,17,24,9822,-3,0,4,5168,170,-34,25,144,0,6,0,0,0,0,0,0,-32294,0,0,0,4194,0,234386,0
234404,-374,70,8162,-15,14,25,9822,0,1,3,5176,168,-45,25,144,0,6,0,0,0,0,0,0,-32294,0,0,0,4194,0,234397,0
234414,-438,88,8170,-17,16,25,9823,4,4,5,5176,166,-43,25,144,0,6,0,0,0,0,0,0,-32294,0,0,0,4194,0,234402,0
234424,-432,78,8182,-13,15,24,9823,-6,0,2,5160,166,-50,25,144,0,6,0,0,0,0,0,0,-32294,0,0,0,4193,0,234416,0
234434,-400,78,8196,-19,9,25,9824,3,-2,1,5184,170,-41,25,144,0,6,0,0,0,0,0,0,-32294,0,0,0,4194,0,234426,0
234444,-450,98,8160,-12,18,26,9823,3,-2,0,5160,171,-21,25,144,0,6,0,0,0,0,0,0,-32293,0,0,0,4194,0,234431,0
234454,-386,78,8156,-14,15,30,9823,1,-1,2,5176,173,-23,25,144,0,6,0,0,0,0,0,0,-32294,0,0,0,4194,0,234438,0
234464,-386,82,8174,-10,17,25,9822,0,-6,2,5168,170,-31,25,144,0,6,0,0,0,0,0,0,-32294,0,0,0,4194,0,234458,0
234474,-392,72,8168,-13,16,28,9824,0,-2,-1,5168,174,-32,25,144,0,6,0,0,0,0,0,0,-32294,0,0,0,4194,0,234465,0
234484,-392,74,8144,-19,14,26,9822,-3,7,0,5160,179,-37,25,144,0,6,0,0,0,0,0,0,-32295,0,0,0,4193,0,234471,0
234494,-396,80,8174,-15,19,24,9823,-2,-4,3,5160,184,7,25,144,0,6,0,0,0,0,0,0,-32294,0,0,0,4194,0,234476,0
234504,-394,78,8162,-11,17,27,9823,1,3,-1,5176,188,-17,25,144,0,6,0,0,0,0,0,0,-32294,0,0,0,4193,0,234484,0
234514,-434,50,8150,-17,15,26,9823,-2,-4,0,5160,179,-15,25,144,0,6,0,0,0,0,0,0,-32293,0,0,0,4194,0,234493,0
234524,-436,98,8142,-11,12,28,9822,-5,-1,6,5168,179,-41,25,144,0,6,0,0,0,0,0,0,-32293,0,0,0,4194,0,234515,0
234534,-356,62,8168,-10,16,29,9823,0,-2,0,5168,179,-17,25,144,0,6,0,0,0,0,0,0,-32294,0,0,0,4193,0,234525,0
234544,-448,92,8172,-16,11,27,9823,0,1,1,5168,170,-61,25,144,0,6,0,0,0,0,0,0,-32294,0,0,0,4193,0,234538,0
234554,-422,88,8168,-13,14,28,9823,2,3,4,5168,168,-93,25,144,0,6,0,0,0,0,0,0,-32294,0,0,0,4194,0,234544,0
234564,-408,68,8176,-13,12,23,9823,1,-3,3,5160,167,-116,25,144,0,6,0,0,0,0,0,0,-32292,0,0,0,4194,0,234546,0
234574,-392,68,8162,-15,16,22,9823,-2,-1,5,5160,171,-78,25,144,0,6,0,0,0,0,0,0,-32292,0,0,0,4194,0,234555,0
234584,-432,98,8174,-19,14,25,9823,0,6,0,5160,173,-46,25,144,0,6,0,0,0,0,0,0,-32294,0,0,0,4194,0,234562,0
234594,-414,72,8152,-21,18,27,9823,-1,4,4,5160,170,-43,25,144,0,6,0,0,0,0,0,0,-32295,0,0,0,4193,0,234578,0
234604,-394,92,8166,-16,13,27,9822,1,0,2,5168,171,-40,25,144,0,6,0,0,0,0,0,0,-32295,0,0,0,4193,0,234583,0
234614,-432,70,8170,-19,17,28,9823,12,6,4,5168,178,-32,25,144,0,6,0,0,0,0,0,0,-32295,0,0,0,4194,0,234593,0
234624,-380,88,8166,-22,17,27,9823,-2,-3,6,5168,182,0,25,144,0,6,0,0,0,0,0,0,-32295,0,0,0,4195,0,234607,0
234634,-404,80,8164,-21,11,24,9823,3,4,-1,5160,180,1,25,144,0,6,0,0,0,0,0,0,-32295,0,0,0,4194,0,234621,0
234644,-436,90,8162,-23,16,22,9823,1,0,5,5168,181,27,25,144,0,6,0,0,0,0,0,0,-32294,0,0,0,4195,0,234626,0
234654,-412,58,8160,-13,15,26,9822,-1,0,8,5176,178,5,25,144,0,6,0,0,0,0,0,0,-32294,0,0,0,4194,0,234641,0
234664,-376,68,8182,-18,15,32,9822,-1,-1,3,5168,173,7,25,144,0,6,0,0,0,0,0,0,-32294,0,0,0,4195,0,234649,0
234674,-398,66,8172,-20,16,27,9823,0,-1,2,5168,171,-25,25,144,0,6,0,0,0,0,0,0,-32294,0,0,0,4193,0,234660,0
234684,-432,56,8154,-15,12,26,9822,-2,-1,-1,5176,168,-46,25,144,0,6,0,0,0,0,0,0,-32294,0,0,0,4194,0,234665,0
234694,-430,76,8134,-25,20,26,9823,-1,0,4,5160,175,-26,25,144,0,6,0,0,0,0,0,0,-32294,0,0,0,4195,0,234674,0
234704,-402,84,8164,-14,13,26,9822,-4,-1,3,5168,175,-39,25,144,0,6,0,0,0,0,0,0,-32295,0,0,0,4195,0,234698,0
234714,-422,88,8156,-14,18,26,9824,5,2,2,5160,173,-25,25,144,0,6,0,0,0,0,0,0,-32294,0,0,0,4194,0,234703,0
234724,-402,58,8166,-17,16,22,9823,0,0,3,5168,175,-70,25,144,0,6,0,0,0,0,0,0,-32294,0,0,0,4193,0,234713,0
234734,-420,76,8182,-14,13,25,9822,-6,-2,-1,5168,173,-37,25,144,0,6,0,0,0,0,0,0,-32294,0,0,0,4194,0,234717,0
234744,-414,76,8152,-18,12,26,9824,8,-2,4,5168,175,-35,25,144,0,6,0,0,0,0,0,0,-32294,0,0,0,4194,0,234732,0
234754,-436,90,8162,-19,21,22,9822,0,0,2,5168,175,-5,25,144,0,6,0,0,0,0,0,0,-32294,0,0,0,4194,0,234742,0
234764,-414,96,8150,-13,15,22,9822,-1,0,1,5160,176,8,25,144,0,6,0,0,0,0,0,0,-32294,0,0,0,4194,0,234750,0
234774,-436,68,8180,-15,15,28,9823,0,0,5,5168,180,-6,25,144,0,6,0,0,0,0,0,0,-32294,0,0,0,4194,0,234755,0
234784,-412,70,8170,-17,20,28,9823,-2,0,2,5168,178,9,25,144,0,6,0,0,0,0,0,0,-32294,0,0,0,4194,0,234784,0
234794,-392,62,8170,-19,19,26,9823,-3,-4,0,5160,175,-12,25,144,0,6,0,0,0,0,0,0,-32294,0,0,0,4193,0,234793,0
234804,-424,58,8154,-16,11,25,9823,-8,-1,5,5168,168,-36,25,144,0,6,0,0,0,0,0,0,-32294,0,0,0,4194,0,234799,0
234814,-424,44,8166,-16,17,29,9823,-6,-5,0,5152,169,-64,25,144,0,6,0,0,0,0,0,0,-32294,0,0,0,4195,0,234809,0
234824,-410,102,8154,-19,13,29,9823,3,0,4,5168,178,-47,25,144,0,6,0,0,0,0,0,0,-32294,0,0,0,4194,0,234814,0
234834,-390,94,8192,-17,16,23,9822,1,-1,0,5160,176,-18,25,144,0,6,0,0,0,0,0,0,-32294,0,0,0,4194,0,234824,0
234844,-420,86,8166,-14,18,28,9822,-1,1,2,5160,176,-29,25,144,0,6,0,0,0,0,0,0,-32294,0,0,0,4194,0,234832,0
234854,-430,74,8174,-23,12,27,9823,-1,0,7,5160,167,-39,25,144,0,6,0,0,0,0,0,0,-32293,0,0,0,4193,0,234837,0
234864,-418,84,8160,-15,15,25,9823,3,-1,2,5168,178,-18,25,144,0,6,0,0,0,0,0,0,-32294,0,0,0,4193,0,234848,0
234874,-408,66,8144,-13,16,22,9825,1,8,4,5160,180,-4,25,144,0,6,0,0,0,0,0,0,-32294,0,0,0,4193,0,234853,0
234884,-408,66,8180,-17,16,23,9824,2,2,-1,5160,179,12,25,144,0,6,0,0,0,0,0,0,-32294,0,0,0,4195,0,234869,0
234894,-416,64,8156,-15,17,31,9823,8,2,7,5168,179,-30,25,144,0,6,0,0,0,0,0,0,-32295,0,0,0,4195,0,234884,0
234904,-444,86,8166,-21,13,28,9823,1,2,3,5168,178,-34,25,144,0,6,0,0,0,0,0,0,-32294,0,0,0,4195,0,234888,0
234914,-406,64,8158,-13,17,25,9823,0,0,0,5168,179,-33,25,144,0,6,0,0,0,0,0,0,-32293,0,0,0,4193,0,234903,0
234924,-404,70,8182,-14,11,26,9823,1,-2,2,5168,172,-68,25,144,0,6,0,0,0,0,0,0,-32294,0,0,0,4195,0,234906,0
234934,-412,54,8180,-17,14,28,9823,1,-1,6,5184,166,-78,25,144,0,6,0,0,0,0,0,0,-32293,0,0,0,4195,0,234913,0
234944,-370,66,8152,-14,14,30,9823,6,2,5,5168,167,-67,25,144,0,6,0,0,0,0,0,0,-32294,0,0,0,4195,0,234975,0
234954,-424,72,8170,-19,17,27,9822,-3,1,4,5168,174,-57,25,144,0,6,0,0,0,0,0,0,-32293,0,0,0,4195,0,234980,0
234964,-400,48,8154,-17,15,24,9822,-1,-2,0,5168,174,-9,25,144,0,6,0,0,0,0,0,0,-32293,0,0,0,4194,0,234987,0
234974,-420,90,8150,-18,14,27,9823,1,2,0,5160,173,-39,25,144,0,6,0,0,0,0,0,0,-32294,0,0,0,4194,0,234997,0
234984,-428,78,8168,-17,14,24,9823,1,3,0,5160,172,-37,25,144,0,6,0,0,0,0,0,0,-32294,0,0,0,4194,0,235001,0
234994,-410,56,8154,-15,17,24,9824,5,3,1,5168,177,-29,25,144,0,6,0,0,0,0,0,0,-32294,0,0,0,4195,0,235012,0
235004,-410,64,8168,-20,12,28,9824,4,2,9,5160,174,-13,25,144,0,6,0,0,0,0,0,0,-32294,0,0,0,4195,0,235012,0
235014,-428,70,8180,-19,14,25,9823,5,1,-1,5168,171,-23,25,144,0,6,0,0,0,0,0,0,-32294,0,0,0,4195,0,235016,0
235024,-370,68,8176,-17,13,30,9823,-1,-1,1,5160,170,-62,25,144,0,6,0,0,0,0,0,0,-32294,0,0,0,4195,0,235026,0
235034,-318,52,8200,-15,16,30,9823,4,-5,3,5168,171,-50,25,144,0,6,0,0,0,0,0,0,-32294,0,0,0,4195,0,235034,0
235044,-354,50,8166,-17,17,31,9822,-3,-1,3,5160,169,-44,25,144,0,6,0,0,0,0,0,0,-32294,0,0,0,4195,0,235046,0
235054,-396,56,8200,-12,16,25,9823,0,3,1,5184,167,-10,25,144,0,6,0,0,0,0,0,0,-32294,0,0,0,4195,0,235050,0
235064,-396,72,8176,-17,15,30,9822,-3,-1,2,5176,166,-34,25,144,0,6,0,0,0,0,0,0,-32293,0,0,0,4194,0,235055,0
235074,-378,68,8164,-17,16,25,9823,-3,-1,3,5152,170,-45,25,144,0,6,0,0,0,0,0,0,-32293,0,0,0,4194,0,235065,0
235084,-414,56,8172,-18,12,28,9822,0,4,5,5160,169,-35,25,144,0,6,0,0,0,0,0,0,-32295,0,0,0,4194,0,235087,0
235094,-414,64,8156,-18,18,28,9823,-9,-1,0,5160,170,-65,25,144,0,6,0,0,0,0,0,0,-32294,0,0,0,4195,0,235095,0
235104,-422,86,8136,-14,13,27,9822,-6,0,6,5168,166,-88,25,144,0,6,0,0,0,0,0,0,-32294,0,0,0,4195,0,235107,0
235114,-414,64,8174,-17,18,27,9824,0,-3,3,5168,172,-86,25,144,0,6,0,0,0,0,0,0,-32294,0,0,0,4194,0,235115,0
235124,-416,52,8164,-18,18,28,9823,1,-1,-1,5168,178,-62,25,144,0,6,0,0,0,0,0,0,-32294,0,0,0,4194,0,235117,0
235134,-380,82,8174,-13,19,24,9823,-3,-3,5,5160,179,-23,25,144,0,6,0,0,0,0,0,0,-32295,0,0,0,4194,0,235122,0
235144,-386,98,8150,-17,11,30,9824,-1,-5,3,5168,179,-50,25,144,0,6,0,0,0,0,0,0,-32294,0,0,0,4193,0,235132,0
235154,-410,52,8164,-24,13,30,9823,2,1,3,5168,171,-66,25,144,0,6,0,0,0,0,0,0,-32294,0,0,0,4194,0,235137,0
235164,-410,66,8160,-17,18,30,9823,2,1,3,5168,175,-31,25,144,0,6,0,0,0,0,0,0,-32295,0,0,0,4193,0,235147,0
235174,-416,52,8150,-17,18,30,9824,6,-5,4,5168,181,20,25,144,0,6,0,0,0,0,0,0,-32294,0,0,0,4194,0,235162,0
235184,-392,88,8166,-21,12,27,9823,1,3,4,5184,179,66,25,144,0,6,0,0,0,0,0,0,-32294,0,0,0,4195,0,235166,0
235194,-410,92,8160,-16,16,29,9823,1,3,4,5168,176,28,25,144,0,6,0,0,0,0,0,0,-32294,0,0,0,4193,0,235184,0
235204,-414,74,8162,-19,9,24,9822,-8,-2,6,5168,176,20,25,144,0,6,0,0,0,0,0,0,-32295,0,0,0,4194,0,235188,0
235214,-402,86,8164,-12,12,27,9823,0,2,-6,5160,176,11,25,144,0,6,0,0,0,0,0,0,-32292,0,0,0,4194,0,235199,0
235224,-426,96,8160,-13,13,27,9824,3,-3,3,5168,170,-29,25,144,0,6,0,0,0,0,0,0,-32292,0,0,0,4195,0,235205,0
235234,-420,94,8160,-19,18,26,9823,0,0,0,5160,168,-50,25,144,0,6,0,0,0,0,0,0,-32294,0,0,0,4195,0,235213,0
235244,-396,94,8154,-17,16,28,9823,0,0,3,5168,170,-71,25,144,0,6,0,0,0,0,0,0,-32295,0,0,0,4195,0,235223,0
235254,-394,62,8164,-16,17,28,9822,-2,-1,2,5168,172,-42,25,144,0,6,0,0,0,0,0,0,-32294,0,0,0,4195,0,235245,0
235264,-394,66,8166,-21,13,23,9823,0,2,1,5168,173,-27,25,144,0,6,0,0,0,0,0,0,-32294,0,0,0,4194,0,235249,0
235274,-406,72,8186,-16,15,29,9821,-2,-1,2,5168,177,7,25,144,0,6,0,0,0,0,0,0,-32293,0,0,0,4194,0,235264,0
235284,-396,80,8158,-17,13,27,9824,13,2,1,5168,176,-42,25,144,0,6,0,0,0,0,0,0,-32293,0,0,0,4194,0,235267,0
235294,-346,36,8106,-16,16,25,9822,-4,-3,2,5160,179,-66,25,144,0,6,0,0,0,0,0,0,-32295,0,0,0,4195,0,235273,0
235304,-418,60,8170,-20,15,27,9823,-1,1,2,5168,172,-81,25,144,0,6,0,0,0,0,0,0,-32294,0,0,0,4194,0,235290,0
235314,-382,70,8144,-14,18,26,9822,-7,2,-2,5160,171,-66,25,144,0,6,0,0,0,0,0,0,-32294,0,0,0,4194,0,235297,0
235324,-380,48,8154,-18,14,26,9823,4,-1,2,5168,173,-37,25,144,0,6,0,0,0,0,0,0,-32294,0,0,0,4194,0,235302,0
235334,-436,60,8162,-16,16,29,9822,0,2,0,5160,176,-39,25,144,0,6,0,0,0,0,0,0,-32294,0,0,0,4194,0,235312,0
235344,-418,58,8190,-19,15,25,9822,1,-3,5,5160,177,-27,25,144,0,6,0,0,0,0,0,0,-32294,0,0,0,4195,0,235328,0
235354,-410,104,8174,-13,14,27,9823,4,4,1,5168,175,-12,25,144,0,6,0,0,0,0,0,0,-32294,0,0,0,4194,0,235335,0
235364,-386,78,8164,-16,19,27,9824,0,-1,2,5168,182,3,25,144,0,6,0,0,0,0,0,0,-32295,0,0,0,4194,0,235369,0
235374,-436,84,8170,-20,15,24,9822,0,-1,2,5168,183,-17,25,144,0,6,0,0,0,0,0,0,-32294,0,0,0,4194,0,235379,0
235384,-434,86,8160,-19,12,25,9823,3,2,6,5168,183,-23,25,144,0,6,0,0,0,0,0,0,-32294,0,0,0,4194,0,235386,0
235394,-422,46,8182,-18,14,28,9822,1,2,4,5168,176,-24,25,144,0,6,0,0,0,0,0,0,-32294,0,0,0,4194,0,235391,0
235404,-416,40,8156,-17,12,31,9822,-5,-2,1,5176,169,-40,25,144,0,6,0,0,0,0,0,0,-32294,0,0,0,4193,0,235394,0
235414,-370,82,8150,-18,15,25,9823,-3,1,5,5168,169,-62,25,144,0,6,0,0,0,0,0,0,-32294,0,0,0,4194,0,235406,0
235424,-394,70,8202,-11,13,27,9824,7,2,5,5168,170,-70,25,144,0,6,0,0,0,0,0,0,-32294,0,0,0,4194,0,235408,0
235434,-400,64,8154,-17,12,24,9823,0,2,6,5184,176,-40,25,144,0,6,0,0,0,0,0,0,-32294,0,0,0,4195,0,235425,0
235444,-382,78,8172,-16,12,26,9823,0,3,4,5168,173,-25,25,144,0,6,0,0,0,0,0,0,-32294,0,0,0,4195,0,235432,0
235454,-414,76,8158,-19,11,24,9822,-3,0,5,5168,169,-15,25,144,0,6,0,0,0,0,0,0,-32294,0,0,0,4195,0,235440,0
235464,-400,66,8170,-16,12,27,9823,1,-3,7,5160,175,-15,25,144,0,6,0,0,0,0,0,0,-32293,0,0,0,4194,0,235466,0
235474,-436,88,8170,-22,13,30,9823,3,2,1,5168,177,0,25,144,0,6,0,0,0,0,0,0,-32294,0,0,0,4194,0,235468,0
235484,-444,54,8160,-13,12,26,9823,-4,-2,3,5160,172,-42,25,144,0,6,0,0,0,0,0,0,-32295,0,0,0,4195,0,235477,0
235494,-446,52,8212,-18,17,32,9823,-2,-1,2,5168,170,-49,25,144,0,6,0,0,0,0,0,0,-32293,0,0,0,4194,0,235491,0
235504,-414,76,8194,-15,19,27,9822,-1,0,1,5176,167,-56,25,144,0,6,0,0,0,0,0,0,-32294,0,0,0,4194,0,235500,0
235514,-446,54,8120,-19,12,23,9822,1,2,0,5160,171,-55,25,144,0,6,0,0,0,0,0,0,-32294,0,0,0,4194,0,235513,0
235524,-436,52,8184,-14,15,27,9822,0,-2,-1,5160,169,-42,25,144,0,6,0,0,0,0,0,0,-32293,0,0,0,4194,0,235518,0
235534,-414,66,8174,-16,17,25,9822,5,0,4,5168,167,-54,25,144,0,6,0,0,0,0,0,0,-32293,0,0,0,4194,0,235528,0
235544,-414,82,8162,-18,11,25,9822,0,1,1,5168,168,-68,25,144,0,6,0,0,0,0,0,0,-32293,0,0,0,4193,0,235537,0
235554,-412,92,8162,-15,17,27,9822,2,2,3,5176,168,-64,25,144,0,6,0,0,0,0,0,0,-32293,0,0,0,4194,0,235544,0
235564,-424,62,8136,-15,18,31,9823,1,0,5,5168,171,-65,25,144,0,6,0,0,0,0,0,0,-32293,0,0,0,4194,0,235549,0
235574,-398,62,8160,-20,11,27,9822,-1,-4,6,5168,171,-27,25,144,0,6,0,0,0,0,0,0,-32293,0,0,0,4194,0,235590,0
235584,-400,66,8180,-17,21,26,9823,1,6,1,5160,174,-22,25,144,0,6,0,0,0,0,0,0,-32293,0,0,0,4194,0,235595,0
235594,-398,74,8170,-22,15,30,9822,0,-2,3,5168,176,-11,25,144,0,6,0,0,0,0,0,0,-32294,0,0,0,4194,0,235603,0
235604,-394,94,8152,-21,13,26,9823,-1,1,2,5168,176,3,25,144,0,6,0,0,0,0,0,0,-32293,0,0,0,4194,0,235619,0
235614,-446,76,8148,-18,20,22,9822,-1,4,3,5160,173,-29,25,144,0,6,0,0,0,0,0,0,-32293,0,0,0,4194,0,235624,0
235624,-418,86,8182,-15,14,27,9823,7,5,1,5168,167,-49,25,144,0,6,0,0,0,0,0,0,-32294,0,0,0,4194,0,235634,0
235634,-392,70,8156,-19,16,27,9824,4,-4,3,5168,176,-64,25,144,0,6,0,0,0,0,0,0,-32294,0,0,0,4194,0,235638,0
235644,-416,82,8166,-17,20,28,9823,-3,1,3,5168,179,-37,25,144,0,6,0,0,0,0,0,0,-32294,0,0,0,4195,0,235649,0
235654,-432,54,8152,-17,17,27,9824,5,-3,4,5168,180,-27,25,144,0,6,0,0,0,0,0,0,-32293,0,0,0,4194,0,235663,0
235664,-408,74,8180,-19,16,27,9822,-2,0,0,5168,176,-18,25,144,0,6,0,0,0,0,0,0,-32293,0,0,0,4195,0,235670,0
235674,-442,90,8158,-18,13,24,9823,0,-6,8,5168,177,-16,25,144,0,6,0,0,0,0,0,0,-32292,0,0,0,4194,0,235676,0
235684,-380,78,8154,-21,13,29,9822,3,2,-1,5160,178,-32,25,144,0,6,0,0,0,0,0,0,-32293,0,0,0,4195,0,235679,0
235694,-418,76,8182,-18,14,26,9823,-1,-2,2,5160,177,-19,25,144,0,6,0,0,0,0,0,0,-32294,0,0,0,4194,0,235686,0
235704,-406,84,8140,-17,11,28,9823,-3,1,1,5176,177,-46,25,144,0,6,0,0,0,0,0,0,-32294,0,0,0,4194,0,235701,0
235714,-396,92,8174,-19,16,27,9822,-2,-3,3,5168,178,-50,25,144,0,6,0,0,0,0,0,0,-32294,0,0,0,4194,0,235709,0
235724,-388,64,8190,-18,14,23,9822,-5,-2,4,5160,177,-44,25,144,0,6,0,0,0,0,0,0,-32294,0,0,0,4194,0,235725,0
235734,-426,64,8162,-16,16,21,9823,3,0,3,5160,175,-68,25,144,0,6,0,0,0,0,0,0,-32294,0,0,0,4194,0,235731,0
235744,-426,84,8166,-17,16,27,9824,8,2,1,5168,169,-45,25,144,0,6,0,0,0,0,0,0,-32294,0,0,0,4194,0,235740,0
235754,-396,72,8172,-16,13,28,9823,0,1,2,5160,170,-77,25,144,0,6,0,0,0,0,0,0,-32294,0,0,0,4195,0,235746,0
235764,-400,60,8132,-14,19,25,9823,0,-1,4,5168,175,-60,25,144,0,6,0,0,0,0,0,0,-32294,0,0,0,4194,0,235766,0
235774,-442,104,8130,-1,14,20,9822,-1,-3,-1,5168,177,-61,25,144,0,6,0,0,0,0,0,0,-32294,0,0,0,4194,0,235777,0
235784,-340,228,8332,-11,24,21,9822,-6,-1,2,5184,174,-88,25,144,0,6,0,0,0,0,0,0,-32294,0,0,0,4195,0,235789,0
235794,-358,0,8314,0,18,25,9823,-2,1,1,5168,168,-74,25,144,0,6,0,0,0,0,0,0,-32292,0,0,0,4195,0,235796,0
235804,-956,220,8016,-24,0,21,9822,-6,-1,1,5168,169,-60,25,144,0,6,0,0,0,0,0,0,-32294,0,0,0,4194,0,235803,0
235814,-604,132,8002,-18,-4,25,9824,0,2,1,5168,175,-14,25,144,0,6,0,0,0,0,0,0,-32294,0,0,0,4194,0,235806,0
235824,-408,96,8074,-9,-5,28,9823,3,-1,3,5160,171,-6,25,144,0,6,0,0,0,0,0,0,-32294,0,0,0,4195,0,235811,0
235834,-112,54,8466,-11,-1,26,9823,0,5,3,5192,172,-33,25,144,0,6,0,0,0,0,0,0,-32292,0,0,0,4195,0,235813,0
235844,-366,74,8198,-16,10,28,9823,1,3,7,5168,172,-31,25,144,0,6,0,0,0,0,0,0,-32292,0,0,0,4194,0,235823,0
235854,-394,104,8270,-19,27,27,9823,0,3,6,5168,175,-19,25,144,0,6,0,0,0,0,0,0,-32295,0,0,0,4194,0,235835,0
235864,-388,58,8180,-18,12,27,9822,0,-2,4,5160,173,-27,25,144,0,6,0,0,0,0,0,0,-32295,0,0,0,4194,0,235843,0
235874,-452,78,8182,-14,8,29,9823,-3,0,5,5168,171,-47,25,144,0,6,0,0,0,0,0,0,-32295,0,0,0,4194,0,235860,0
235884,-470,66,8152,-16,16,24,9823,0,3,3,5160,168,-56,25,144,0,6,0,0,0,0,0,0,-32293,0,0,0,4194,0,235865,0
235894,-382,62,8214,-16,15,27,9823,0,-2,1,5168,171,-36,25,144,0,6,0,0,0,0,0,0,-32294,0,0,0,4195,0,235874,0
235904,-412,82,8166,-15,7,26,9823,1,-1,3,5160,169,-56,25,144,0,6,0,0,0,0,0,0,-32294,0,0,0,4194,0,235897,0
235914,-394,106,8204,-14,13,27,9822,6,0,6,5160,170,-61,25,144,0,6,0,0,0,0,0,0,-32294,0,0,0,4195,0,235902,0
235924,-384,74,8208,-18,18,31,9823,1,4,1,5168,171,-78,25,144,0,6,0,0,0,0,0,0,-32294,0,0,0,4195,0,235912,0
235934,-404,50,8156,-17,18,25,9823,1,1,0,5160,177,-42,25,144,0,6,0,0,0,0,0,0,-32294,0,0,0,4194,0,235933,0
235944,-442,62,8172,-20,18,30,9821,-3,-7,5,5160,179,-24,25,144,0,6,0,0,0,0,0,0,-32294,0,0,0,4194,0,235940,0
235954,-448,40,8102,-18,10,25,9823,0,3,0,5168,180,-1,25,144,0,6,0,0,0,0,0,0,-32294,0,0,0,4194,0,235943,0
235964,-434,64,8132,-22,14,25,9822,0,-3,4,5168,175,-8,25,144,0,6,0,0,0,0,0,0,-32294,0,0,0,4193,0,235948,0
235974,-420,76,8172,-16,12,22,9823,3,4,5,5168,174,-5,25,144,0,6,0,0,0,0,0,0,-32294,0,0,0,4194,0,235958,0
235984,-462,72,8126,-21,13,27,9823,0,0,-2,5168,174,-5,25,144,0,6,0,0,0,0,0,0,-32294,0,0,0,4195,0,235965,0
235994,-384,72,8172,-12,12,30,9823,-4,-1,6,5160,172,13,25,144,0,6,0,0,0,0,0,0,-32294,0,0,0,4195,0,235972,0
236004,-396,72,8170,-17,13,28,9823,0,1,4,5160,172,-34,25,144,0,6,0,0,0,0,0,0,-32294,0,0,0,4194,0,235985,0
236014,-416,72,8190,-18,14,29,9823,0,2,7,5160,170,-8,25,144,0,6,0,0,0,0,0,0,-32294,0,0,0,4193,0,235992,0
236024,-374,44,8172,-19,15,21,9823,0,-2,5,5168,175,7,25,144,0,6,0,0,0,0,0,0,-32294,0,0,0,4194,0,236002,0
236034,-374,92,8186,-21,15,24,9823,0,0,-1,5160,173,15,25,144,0,6,0,0,0,0,0,0,-32294,0,0,0,4194,0,236044,0
236044,-434,76,8194,-19,16,25,9822,-7,-1,8,5160,179,26,25,144,0,6,0,0,0,0,0,0,-32294,0,0,0,4194,0,236046,0
236054,-420,72,8170,-19,13,25,9822,0,2,-6,5176,182,25,25,144,0,6,0,0,0,0,0,0,-32295,0,0,0,4194,0,236058,0
236064,-390,66,8156,-19,17,28,9824,4,0,5,5168,182,2,25,144,0,6,0,0,0,0,0,0,-32293,0,0,0,4193,0,236070,0
236074,-382,62,8162,-16,13,29,9824,6,2,3,5160,177,-45,25,144,0,6,0,0,0,0,0,0,-32294,0,0,0,4194,0,236075,0
236084,-390,72,8170,-19,17,25,9823,-2,2,0,5184,173,-69,25,144,0,6,0,0,0,0,0,0,-32293,0,0,0,4194,0,236084,0
236094,-398,52,8152,-12,18,25,9822,-1,3,7,5168,170,-57,25,144,0,6,0,0,0,0,0,0,-32294,0,0,0,4194,0,236089,0
236104,-454,62,8148,-16,17,28,9824,3,0,6,5168,176,-37,25,144,0,6,0,0,0,0,0,0,-32294,0,0,0,4194,0,236096,0
236114,-426,86,8176,-15,13,24,9823,5,1,3,5168,175,-17,25,144,0,6,0,0,0,0,0,0,-32293,0,0,0,4194,0,236099,0
236124,-414,62,8166,-16,16,26,9823,-3,1,4,5160,176,-42,25,144,0,6,0,0,0,0,0,0,-32294,0,0,0,4193,0,236106,0
236134,-430,92,8166,-17,22,25,9823,5,10,0,5184,173,-49,25,144,0,6,0,0,0,0,0,0,-32294,0,0,0,4194,0,236112,0
236144,-410,74,8154,-19,15,30,9824,0,5,6,5160,175,-28,25,144,0,6,0,0,0,0,0,0,-32294,0,0,0,4195,0,236123,0
236154,-420,60,8176,-15,16,25,9823,3,4,1,5168,174,-13,25,144,0,6,0,0,0,0,0,0,-32294,0,0,0,4194,0,236144,0
236164,-412,58,8166,-19,11,22,9822,-8,-1,6,5160,176,10,25,144,0,6,0,0,0,0,0,0,-32294,0,0,0,4195,0,236149,0
236174,-390,84,8156,-17,15,27,9822,0,6,2,5160,176,-13,25,144,0,6,0,0,0,0,0,0,-32293,0,0,0,4195,0,236152,0
236184,-400,88,8172,-11,16,24,9822,-1,0,-3,5160,179,-9,25,144,0,6,0,0,0,0,0,0,-32294,0,0,0,4195,0,236174,0
236194,-406,56,8162,-19,12,32,9823,5,6,5,5168,179,-14,25,144,0,6,0,0,0,0,0,0,-32294,0,0,0,4194,0,236179,0
236204,-406,100,8154,-16,13,28,9822,-3,3,4,5168,176,-25,25,144,0,6,0,0,0,0,0,0,-32293,0,0,0,4193,0,236190,0
236214,-400,92,8180,-13,16,26,9824,-3,0,5,5168,171,-17,25,144,0,6,0,0,0,0,0,0,-32293,0,0,0,4194,0,236195,0
236224,-392,56,8162,-14,13,25,9824,-2,-2,0,5168,174,-49,25,144,0,6,0,0,0,0,0,0,-32294,0,0,0,4193,0,236243,0
236234,-436,118,8168,-15,13,29,9823,-1,-1,2,5160,174,-34,25,144,0,6,0,0,0,0,0,0,-32294,0,0,0,4194,0,236248,0
236244,-434,68,8180,-17,18,24,9823,4,1,2,5168,173,-38,25,144,0,6,0,0,0,0,0,0,-32294,0,0,0,4194,0,236257,0
236254,-406,60,8160,-17,16,27,9823,-1,-3,4,5168,170,-31,25,144,0,6,0,0,0,0,0,0,-32294,0,0,0,4193,0,236263,0
236264,-416,68,8182,-13,13,26,9823,0,-3,2,5160,168,-23,25,144,0,6,0,0,0,0,0,0,-32294,0,0,0,4193,0,236263,0
236274,-388,66,8168,-18,19,24,9823,-1,-3,8,5168,176,-36,25,144,0,6,0,0,0,0,0,0,-32294,0,0,0,4194,0,236272,0
236284,-398,78,8162,-17,10,25,9822,0,7,0,5160,177,-5,25,144,0,6,0,0,0,0,0,0,-32294,0,0,0,4193,0,236278,0
236294,-402,72,8140,-12,13,28,9822,-3,1,4,5160,179,14,25,144,0,6,0,0,0,0,0,0,-32296,0,0,0,4195,0,236292,0
236304,-436,98,8166,-17,8,29,9823,-1,1,1,5168,178,37,25,144,0,6,0,0,0,0,0,0,-32294,0,0,0,4194,0,236294,0
236314,-394,72,8176,-17,15,26,9823,8,2,1,5160,177,61,25,144,0,6,0,0,0,0,0,0,-32294,0,0,0,4195,0,236307,0
236324,-424,70,8158,-13,16,27,9822,0,0,1,5160,178,44,25,144,0,6,0,0,0,0,0,0,-32293,0,0,0,4194,0,236314,0
236334,-406,70,8152,-14,18,28,9823,1,-6,4,5184,171,36,25,144,0,6,0,0,0,0,0,0,-32293,0,0,0,4194,0,236316,0
236344,-438,90,8180,-18,14,27,9822,-2,-2,-1,5168,165,-29,25,144,0,6,0,0,0,0,0,0,-32293,0,0,0,4194,0,236324,0
236354,-404,92,8176,-15,14,27,9822,-6,1,2,5168,170,-33,25,144,0,6,0,0,0,0,0,0,-32293,0,0,0,4194,0,236351,0
236364,-410,64,8156,-22,14,31,9822,-4,0,-1,5160,175,-14,25,144,0,6,0,0,0,0,0,0,-32294,0,0,0,4194,0,236359,0
236374,-416,60,8166,-14,14,27,9824,7,-3,0,5168,177,-23,25,144,0,6,0,0,0,0,0,0,-32294,0,0,0,4194,0,236362,0
236384,-424,84,8184,-17,13,28,9822,-1,-1,-2,5168,172,-36,25,144,0,6,0,0,0,0,0,0,-32295,0,0,0,4195,0,236369,0
236394,-408,86,8142,-14,14,25,9824,0,1,7,5160,175,-47,25,144,0,6,0,0,0,0,0,0,-32294,0,0,0,4194,0,236385,0
236404,-406,90,8164,-17,21,24,9822,-6,0,3,5168,179,-36,25,144,0,6,0,0,0,0,0,0,-32294,0,0,0,4193,0,236396,0
236414,-416,60,8160,-17,13,26,9823,0,0,3,5160,179,-12,25,144,0,6,0,0,0,0,0,0,-32294,0,0,0,4194,0,236399,0
236424,-416,68,8158,-16,11,26,9824,5,2,3,5160,176,-62,25,144,0,6,0,0,0,0,0,0,-32292,0,0,0,4194,0,236406,0
236434,-436,86,8176,-17,20,28,9823,-3,-3,0,5184,167,-77,25,144,0,6,0,0,0,0,0,0,-32294,0,0,0,4194,0,236412,0
236444,-396,66,8168,-22,12,22,9822,-7,1,6,5160,170,-82,25,144,0,6,0,0,0,0,0,0,-32295,0,0,0,4194,0,236426,0
236454,-396,74,8152,-18,13,27,9822,-7,1,3,5176,174,-55,25,144,0,6,0,0,0,0,0,0,-32293,0,0,0,4194,0,236434,0
236464,-408,58,8152,-15,19,28,9823,-5,-5,2,5168,170,-50,25,144,0,6,0,0,0,0,0,0,-32292,0,0,0,4194,0,236464,0
236474,-384,68,8180,-21,18,25,9823,-5,5,6,5168,170,-79,25,144,0,6,0,0,0,0,0,0,-32294,0,0,0,4195,0,236467,0
236484,-398,66,8154,-15,13,29,9823,-2,-1,1,5160,168,-62,25,144,0,6,0,0,0,0,0,0,-32293,0,0,0,4194,0,236479,0
236494,-388,70,8168,-17,13,22,9823,-3,4,2,5168,171,-40,25,144,0,6,0,0,0,0,0,0,-32292,0,0,0,4192,0,236481,0
236504,-418,100,8168,-14,16,28,9823,-2,-1,3,5168,169,-28,25,144,0,6,0,0,0,0,0,0,-32293,0,0,0,4194,0,236494,0
236514,-386,72,8168,-16,15,27,9823,-3,-4,2,5160,169,-58,25,144,0,6,0,0,0,0,0,0,-32295,0,0,0,4193,0,236505,0
236524,-436,78,8164,-13,9,27,9824,3,1,0,5168,172,-66,25,144,0,6,0,0,0,0,0,0,-32295,0,0,0,4194,0,236508,0
236534,-422,78,8168,-16,17,27,9823,1,2,5,5160,170,-64,25,144,0,6,0,0,0,0,0,0,-32293,0,0,0,4194,0,236512,0
236544,-430,66,8166,-20,14,26,9823,-4,-2,10,5160,172,-61,25,144,0,6,0,0,0,0,0,0,-32293,0,0,0,4194,0,236533,0
236554,-416,66,8156,-20,17,25,9823,0,0,1,5168,170,-25,25,144,0,6,0,0,0,0,0,0,-32294,0,0,0,4195,0,236543,0
236564,-432,66,8192,-16,17,29,9823,7,0,6,5168,173,-27,25,144,0,6,0,0,0,0,0,0,-32294,0,0,0,4194,0,236564,0
236574,-430,86,8168,-22,21,24,9822,-9,-1,2,5168,179,0,25,144,0,6,0,0,0,0,0,0,-32294,0,0,0,4193,0,236576,0
236584,-420,64,8168,-10,17,22,9823,1,0,4,5160,178,-15,25,144,0,6,0,0,0,0,0,0,-32294,0,0,0,4193,0,236586,0
236594,-436,68,8180,-19,16,28,9823,3,-2,0,5160,176,-30,25,144,0,6,0,0,0,0,0,0,-32295,0,0,0,4194,0,236591,0
236604,-430,74,8178,-16,21,28,9823,1,-2,5,5176,171,-48,25,144,0,6,0,0,0,0,0,0,-32294,0,0,0,4194,0,236599,0
236614,-412,82,8158,-12,15,24,9823,0,-2,3,5168,171,-39,25,144,0,6,0,0,0,0,0,0,-32294,0,0,0,4194,0,236609,0
236624,-408,64,8154,-14,17,26,9823,0,0,0,5160,173,-31,25,144,0,6,0,0,0,0,0,0,-32294,0,0,0,4195,0,236614,0
236634,-420,62,8156,-20,14,32,9822,-1,0,2,5168,171,-24,25,144,0,6,0,0,0,0,0,0,-32294,0,0,0,4193,0,236617,0
236644,-404,90,8150,-17,18,25,9823,6,0,6,5168,167,-56,25,144,0,6,0,0,0,0,0,0,-32294,0,0,0,4194,0,236636,0
236654,-414,70,8176,-19,10,24,9822,-1,2,0,5176,168,-64,25,144,0,6,0,0,0,0,0,0,-32294,0,0,0,4194,0,236644,0
236664,-396,56,8168,-24,15,28,9823,0,2,5,5168,167,-50,25,144,0,6,0,0,0,0,0,0,-32293,0,0,0,4194,0,236659,0
236674,-408,60,8184,-14,20,25,9823,1,-1,3,5160,169,-14,25,144,0,6,0,0,0,0,0,0,-32294,0,0,0,4193,0,236661,0
236684,-404,76,8164,-18,10,29,9824,2,2,6,5184,163,-27,25,144,0,6,0,0,0,0,0,0,-32294,0,0,0,4194,0,236673,0
236694,-406,74,8178,-9,20,25,9823,-2,1,4,5160,167,-56,25,144,0,6,0,0,0,0,0,0,-32294,0,0,0,4194,0,236676,0
236704,-382,60,8168,-17,15,24,9822,1,2,2,5176,167,-74,25,144,0,6,0,0,0,0,0,0,-32294,0,0,0,4194,0,236683,0
236714,-412,86,8146,-17,20,29,9822,2,0,1,5160,172,-66,25,144,0,6,0,0,0,0,0,0,-32294,0,0,0,4194,0,236692,0
236724,-392,56,8158,-18,14,28,9822,-4,2,2,5168,169,-58,25,144,0,6,0,0,0,0,0,0,-32294,0,0,0,4194,0,236704,0
236734,-388,48,8184,-16,19,27,9823,-1,-2,4,5160,172,-44,25,144,0,6,0,0,0,0,0,0,-32294,0,0,0,4194,0,236713,0
236744,-432,72,8162,-24,12,27,9824,1,6,3,5152,178,-50,25,144,0,6,0,0,0,0,0,0,-32294,0,0,0,4193,0,236751,0
236754,-420,92,8176,-21,18,26,9823,0,-3,2,5168,179,-12,25,144,0,6,0,0,0,0,0,0,-32294,0,0,0,4194,0,236774,0
236764,-402,94,8158,-19,15,26,9823,3,1,5,5168,177,-44,25,144,0,6,0,0,0,0,0,0,-32294,0,0,0,4193,0,236778,0
236774,-412,60,8196,-22,12,24,9823,2,1,4,5168,179,-21,25,144,0,6,0,0,0,0,0,0,-32294,0,0,0,4194,0,236788,0
236784,-418,72,8180,-10,19,31,9823,0,3,3,5168,177,-41,25,144,0,6,0,0,0,0,0,0,-32293,0,0,0,4194,0,236793,0
236794,-404,70,8172,-12,14,25,9823,0,3,5,5168,179,-27,25,144,0,6,0,0,0,0,0,0,-32294,0,0,0,4195,0,236804,0
236804,-398,66,8190,-16,17,29,9822,0,-2,3,5168,176,-28,25,144,0,6,0,0,0,0,0,0,-32293,0,0,0,4194,0,236809,0
236814,-408,82,8158,-14,11,26,9823,3,0,-1,5168,174,-61,25,144,0,6,0,0,0,0,0,0,-32293,0,0,0,4195,0,236817,0
236824,-414,74,8184,-18,15,24,9822,3,1,5,5168,175,-66,25,144,0,6,0,0,0,0,0,0,-32293,0,0,0,4193,0,236819,0
236834,-398,46,8184,-17,16,27,9823,3,2,0,5160,172,-67,25,144,0,6,0,0,0,0,0,0,-32294,0,0,0,4194,0,236824,0
236844,-406,74,8188,-19,18,29,9822,-2,-3,7,5168,172,-46,25,144,0,6,0,0,0,0,0,0,-32293,0,0,0,4194,0,236834,0
236854,-420,80,8172,-13,17,28,9823,0,-1,5,5168,170,-57,25,144,0,6,0,0,0,0,0,0,-32293,0,0,0,4194,0,236887,0
236864,-386,78,8154,-13,19,29,9822,-3,-2,0,5168,174,-61,25,144,0,6,0,0,0,0,0,0,-32293,0,0,0,4194,0,236892,0
236874,-438,76,8188,-19,13,28,9823,4,-1,2,5168,178,-51,25,144,0,6,0,0,0,0,0,0,-32294,0,0,0,4193,0,236902,0
236884,-448,72,8176,-17,15,26,9823,-3,4,1,5160,179,-22,25,144,0,6,0,0,0,0,0,0,-32294,0,0,0,4194,0,236907,0
236894,-392,62,8150,-16,12,29,9823,2,-1,2,5168,176,-25,25,144,0,6,0,0,0,0,0,0,-32294,0,0,0,4193,0,236923,0
236904,-400,68,8148,-17,15,26,9823,0,2,1,5168,171,-31,25,144,0,6,0,0,0,0,0,0,-32294,0,0,0,4194,0,236923,0
236914,-398,64,8156,-17,13,30,9824,-1,1,2,5160,176,-37,25,144,0,6,0,0,0,0,0,0,-32294,0,0,0,4194,0,236923,0
236924,-408,78,8170,-19,15,26,9823,1,4,2,5160,179,-13,25,144,0,6,0,0,0,0,0,0,-32294,0,0,0,4193,0,236933,0
236934,-408,60,8176,-14,14,26,9823,1,3,-1,5168,177,22,25,144,0,6,0,0,0,0,0,0,-32295,0,0,0,4194,0,236938,0
236944,-416,80,8144,-19,13,26,9822,0,-3,3,5160,178,47,25,144,0,6,0,0,0,0,0,0,-32295,0,0,0,4194,0,236948,0
236954,-408,60,8160,-20,17,23,9823,0,5,3,5168,176,50,25,144,0,6,0,0,0,0,0,0,-32295,0,0,0,4193,0,236953,0
236964,-420,78,8154,-16,16,24,9823,-1,-1,4,5160,181,33,25,144,0,6,0,0,0,0,0,0,-32294,0,0,0,4193,0,236962,0
236974,-422,86,8174,-11,14,28,9822,1,-3,6,5168,171,19,25,144,0,6,0,0,0,0,0,0,-32295,0,0,0,4194,0,236983,0
236984,-386,70,8146,-16,12,27,9822,1,-2,-1,5160,179,23,25,144,0,6,0,0,0,0,0,0,-32295,0,0,0,4193,0,236985,0
236994,-408,62,8180,-16,20,30,9823,-1,1,7,5168,181,47,25,144,0,6,0,0,0,0,0,0,-32295,0,0,0,4194,0,236993,0
237004,-432,68,8180,-21,11,24,9823,6,0,0,5168,182,47,25,144,0,6,0,0,0,0,0,0,-32294,0,0,0,4195,0,237005,0
237014,-422,46,8174,-8,13,27,9823,2,-1,5,5160,180,12,25,144,0,6,0,0,0,0,0,0,-32295,0,0,0,4194,0,237012,0
237024,-442,64,8158,-15,13,26,9823,0,4,1,5168,174,-9,25,144,0,6,0,0,0,0,0,0,-32295,0,0,0,4193,0,237015,0
237034,-416,86,8168,-19,14,29,9822,-3,-1,0,5160,176,-32,25,144,0,6,0,0,0,0,0,0,-32294,0,0,0,4193,0,237022,0
237044,-416,66,8136,-17,7,27,9824,5,-1,6,5160,177,-30,25,144,0,6,0,0,0,0,0,0,-32294,0,0,0,4194,0,237034,0
237054,-402,80,8156,-13,15,25,9822,-3,1,-1,5168,175,-40,25,144,0,6,0,0,0,0,0,0,-32295,0,0,0,4194,0,237044,0
237064,-384,58,8140,-10,13,22,9822,0,-2,0,5168,173,-66,25,144,0,6,0,0,0,0,0,0,-32293,0,0,0,4194,0,237049,0
237074,-430,64,8188,-10,13,25,9822,-5,-4,7,5160,172,-61,25,144,0,6,0,0,0,0,0,0,-32292,0,0,0,4194,0,237058,0
237084,-396,90,8160,-19,8,23,9822,0,-2,1,5160,176,-61,25,144,0,6,0,0,0,0,0,0,-32292,0,0,0,4194,0,237065,0
237094,-420,76,8150,-17,16,23,9823,6,1,5,5160,177,-46,25,144,0,6,0,0,0,0,0,0,-32294,0,0,0,4194,0,237094,0
237104,-424,96,8166,-23,20,26,9823,-1,-1,0,5168,174,-51,25,144,0,6,0,0,0,0,0,0,-32294,0,0,0,4194,0,237098,0
237114,-390,78,8166,-21,12,22,9823,0,-1,0,5160,173,-19,25,144,0,6,0,0,0,0,0,0,-32294,0,0,0,4194,0,237105,0
237124,-420,90,8194,-23,16,30,9822,0,-2,4,5168,173,-14,25,144,0,6,0,0,0,0,0,0,-32293,0,0,0,4194,0,237116,0
237134,-410,88,8150,-18,14,28,9822,-1,1,3,5160,180,6,25,144,0,6,0,0,0,0,0,0,-32293,0,0,0,4193,0,237118,0
237144,-394,88,8142,-11,17,23,9823,-4,3,4,5168,174,-25,25,144,0,6,0,0,0,0,0,0,-32293,0,0,0,4194,0,237132,0
237154,-396,62,8168,-17,16,33,9823,-1,3,0,5168,172,-63,25,144,0,6,0,0,0,0,0,0,-32294,0,0,0,4193,0,237139,0
237164,-404,76,8162,-19,17,24,9822,-2,1,5,5160,171,-60,25,144,0,6,0,0,0,0,0,0,-32294,0,0,0,4194,0,237143,0
237174,-396,74,8174,-15,14,26,9822,-9,-2,8,5160,170,-31,25,144,0,6,0,0,0,0,0,0,-32293,0,0,0,4194,0,237161,0
237184,-418,82,8158,-16,17,23,9823,3,4,0,5160,171,-34,25,144,0,6,0,0,0,0,0,0,-32294,0,0,0,4194,0,237164,0
237194,-420,70,8166,-16,14,28,9823,0,1,1,5168,168,-33,25,144,0,6,0,0,0,0,0,0,-32294,0,0,0,4194,0,237172,0
237204,-428,70,8174,-19,9,29,9822,-7,1,5,5168,170,-38,25,144,0,6,0,0,0,0,0,0,-32294,0,0,0,4194,0,237188,0
237214,-396,72,8148,-10,18,27,9822,0,2,0,5160,174,-30,25,144,0,6,0,0,0,0,0,0,-32294,0,0,0,4194,0,237193,0
237224,-394,72,8180,-18,15,29,9822,1,-2,7,5168,176,-38,25,144,0,6,0,0,0,0,0,0,-32294,0,0,0,4194,0,237203,0
237234,-398,78,8166,-17,14,23,9824,3,5,0,5160,177,-46,25,144,0,6,0,0,0,0,0,0,-32294,0,0,0,4194,0,237217,0
237244,-424,58,8170,-18,18,23,9823,0,-2,8,5160,176,-23,25,144,0,6,0,0,0,0,0,0,-32294,0,0,0,4194,0,237222,0
237254,-398,106,8178,-19,12,23,9823,4,3,1,5168,177,-4,25,144,0,6,0,0,0,0,0,0,-32294,0,0,0,4194,0,237232,0
237264,-418,82,8172,-14,17,28,9823,1,-2,2,5160,179,11,25,144,0,6,0,0,0,0,0,0,-32294,0,0,0,4194,0,237243,0
237274,-404,52,8182,-17,16,26,9823,-1,2,4,5168,173,-19,25,144,0,6,0,0,0,0,0,0,-32294,0,0,0,4194,0,237252,0
237284,-386,94,8148,-17,15,22,9823,0,-2,-2,5160,171,-50,25,144,0,6,0,0,0,0,0,0,-32294,0,0,0,4194,0,237289,0
237294,-390,72,8168,-21,9,30,9822,-7,-3,2,5160,171,-37,25,144,0,6,0,0,0,0,0,0,-32294,0,0,0,4194,0,237296,0
237304,-416,88,8154,-18,19,23,9822,-5,-3,2,5168,173,-22,25,144,0,6,0,0,0,0,0,0,-32294,0,0,0,4194,0,237299,0
237314,-406,50,8172,-13,16,29,9823,-2,1,0,5160,176,17,25,144,0,6,0,0,0,0,0,0,-32293,0,0,0,4193,0,237303,0
237324,-434,90,8186,-13,13,25,9823,-1,-4,6,5160,176,1,25,144,0,6,0,0,0,0,0,0,-32294,0,0,0,4193,0,237307,0
237334,-396,74,8150,-16,17,24,9823,3,-2,1,5184,174,-6,25,144,0,6,0,0,0,0,0,0,-32294,0,0,0,4194,0,237313,0
237344,-418,90,8164,-17,10,25,9823,2,0,4,5168,173,-31,25,144,0,6,0,0,0,0,0,0,-32294,0,0,0,4193,0,237323,0
237354,-414,72,8164,-19,17,28,9824,0,-2,3,5168,173,-49,25,144,0,6,0,0,0,0,0,0,-32294,0,0,0,4194,0,237341,0
237364,-412,94,8156,-19,11,25,9822,0,1,2,5168,176,-29,25,144,0,6,0,0,0,0,0,0,-32294,0,0,0,4194,0,237344,0
237374,-410,92,8174,-18,13,27,9823,0,0,3,5168,178,-21,25,144,0,6,0,0,0,0,0,0,-32293,0,0,0,4193,0,237352,0
237384,-394,70,8166,-20,18,25,9823,0,0,-1,5160,179,-18,25,144,0,6,0,0,0,0,0,0,-32293,0,0,0,4194,0,237375,0
237394,-438,58,8176,-20,22,30,9823,-2,0,2,5168,179,-22,25,144,0,6,0,0,0,0,0,0,-32293,0,0,0,4194,0,237380,0
237404,-400,54,8158,-17,19,27,9823,7,-3,3,5160,174,-39,25,144,0,6,0,0,0,0,0,0,-32294,0,0,0,4193,0,237390,0
237414,-430,60,8176,-17,13,26,9823,2,-1,1,5168,170,-61,25,144,0,6,0,0,0,0,0,0,-32293,0,0,0,4194,0,237395,0
237424,-438,68,8174,-17,11,25,9822,-7,-4,2,5168,171,-76,25,144,0,6,0,0,0,0,0,0,-32294,0,0,0,4194,0,237403,0
237434,-410,72,8162,-20,16,26,9823,-1,-1,-1,5160,173,-74,25,144,0,6,0,0,0,0,0,0,-32294,0,0,0,4193,0,237412,0
237444,-402,64,8158,-15,14,29,9823,1,2,5,5160,172,-45,25,144,0,6,0,0,0,0,0,0,-32294,0,0,0,4194,0,237435,0
237454,-404,72,8160,-15,12,26,9821,-8,0,6,5168,177,-32,25,144,0,6,0,0,0,0,0,0,-32293,0,0,0,4194,0,237440,0
237464,-400,106,8174,-17,20,31,9823,0,0,3,5168,177,-9,25,144,0,6,0,0,0,0,0,0,-32293,0,0,0,4194,0,237447,0
237474,-408,82,8170,-13,12,21,9824,3,-2,6,5168,179,-30,25,144,0,6,0,0,0,0,0,0,-32294,0,0,0,4195,0,237455,0
237484,-404,64,8166,-19,17,26,9822,-4,-2,2,5160,176,-43,25,144,0,6,0,0,0,0,0,0,-32293,0,0,0,4193,0,237480,0
237494,-422,54,8154,-15,15,29,9823,0,1,3,5168,173,-84,25,144,0,6,0,0,0,0,0,0,-32293,0,0,0,4194,0,237510,0
237504,-410,78,8182,-14,10,21,9823,-1,0,3,5168,170,-81,25,144,0,6,0,0,0,0,0,0,-32293,0,0,0,4194,0,237523,0
237514,-416,58,8170,-19,21,28,9823,0,1,2,5160,172,-65,25,144,0,6,0,0,0,0,0,0,-32294,0,0,0,4195,0,237529,0
237524,-404,72,8162,-14,10,25,9823,-1,-3,3,5168,176,-54,25,144,0,6,0,0,0,0,0,0,-32294,0,0,0,4194,0,237539,0
237534,-390,98,8174,-19,14,29,9823,3,3,1,5160,174,-60,25,144,0,6,0,0,0,0,0,0,-32294,0,0,0,4195,0,237539,0
237544,-402,64,8172,-18,11,27,9822,-1,2,0,5160,173,-69,25,144,0,6,0,0,0,0,0,0,-32294,0,0,0,4194,0,237544,0
237554,-422,64,8172,-19,14,26,9823,-4,-4,6,5168,178,-59,25,144,0,6,0,0,0,0,0,0,-32293,0,0,0,4194,0,237553,0
237564,-412,60,8172,-20,22,26,9822,-5,1,1,5160,176,-31,25,144,0,6,0,0,0,0,0,0,-32293,0,0,0,4194,0,237555,0
237574,-392,84,8154,-15,15,26,9822,-9,5,4,5168,175,-48,25,144,0,6,0,0,0,0,0,0,-32293,0,0,0,4194,0,237562,0
237584,-416,46,8156,-15,17,24,9823,-1,-4,0,5160,174,-61,25,144,0,6,0,0,0,0,0,0,-32294,0,0,0,4195,0,237567,0
237594,-388,70,8150,-16,19,23,9823,0,2,2,5168,173,-60,25,144,0,6,0,0,0,0,0,0,-32294,0,0,0,4194,0,237577,0
237604,-394,80,8184,-18,16,24,9822,-6,-1,4,5160,171,-38,25,144,0,6,0,0,0,0,0,0,-32295,0,0,0,4194,0,237582,0
237614,-410,62,8170,-17,19,29,9823,-4,-4,2,5160,167,-15,25,144,0,6,0,0,0,0,0,0,-32295,0,0,0,4194,0,237593,0
237624,-398,44,8164,-13,14,28,9822,-1,1,5,5168,174,-5,25,144,0,6,0,0,0,0,0,0,-32295,0,0,0,4193,0,237605,0
237634,-406,70,8160,-20,15,24,9822,-3,2,5,5160,179,18,25,144,0,6,0,0,0,0,0,0,-32294,0,0,0,4193,0,237615,0
237644,-434,88,8166,-19,19,24,9823,0,-2,1,5160,181,25,25,144,0,6,0,0,0,0,0,0,-32294,0,0,0,4194,0,237627,0
237654,-414,102,8170,-21,17,22,9823,-3,-3,5,5168,173,-14,25,144,0,6,0,0,0,0,0,0,-32294,0,0,0,4193,0,237637,0
237664,-430,84,8166,-19,11,33,9822,0,-1,1,5168,176,-42,25,144,0,6,0,0,0,0,0,0,-32295,0,0,0,4193,0,237642,0
237674,-442,74,8168,-22,18,21,9823,-4,-6,2,5168,177,-19,25,144,0,6,0,0,0,0,0,0,-32294,0,0,0,4193,0,237652,0
237684,-408,84,8158,-17,20,26,9824,2,3,0,5160,181,-12,25,144,0,6,0,0,0,0,0,0,-32294,0,0,0,4194,0,237665,0
237694,-396,70,8182,-20,18,26,9822,-9,-4,5,5160,185,29,25,144,0,6,0,0,0,0,0,0,-32295,0,0,0,4194,0,237673,0
237704,-424,88,8156,-15,19,28,9823,3,-1,6,5160,173,-24,25,144,0,6,0,0,0,0,0,0,-32295,0,0,0,4193,0,237683,0
237714,-404,92,8178,-20,16,26,9823,-1,0,2,5168,175,-41,25,144,0,6,0,0,0,0,0,0,-32294,0,0,0,4194,0,237713,0
237724,-404,86,8158,-21,19,24,9822,-2,-2,3,5160,177,-29,25,144,0,6,0,0,0,0,0,0,-32295,0,0,0,4195,0,237718,0
237734,-372,78,8132,-15,19,26,9824,3,3,6,5160,178,13,25,144,0,6,0,0,0,0,0,0,-32294,0,0,0,4195,0,237728,0
237744,-398,102,8126,-19,17,28,9823,7,-3,5,5168,180,28,25,144,0,6,0,0,0,0,0,0,-32295,0,0,0,4194,0,237733,0
237754,-402,60,8168,-17,21,25,9822,-2,-1,0,5168,179,46,25,144,0,6,0,0,0,0,0,0,-32294,0,0,0,4195,0,237742,0
237764,-402,72,8188,-19,16,29,9823,1,3,2,5168,179,42,25,144,0,6,0,0,0,0,0,0,-32294,0,0,0,4195,0,237747,0
237774,-390,76,8178,-17,11,25,9823,-1,5,5,5168,181,48,25,144,0,6,0,0,0,0,0,0,-32294,0,0,0,4194,0,237756,0
237784,-426,90,8128,-15,17,26,9821,-1,-5,4,5184,174,25,25,144,0,6,0,0,0,0,0,0,-32294,0,0,0,4194,0,237762,0
237794,-440,62,8150,-18,14,27,9822,-9,-1,3,5168,168,-31,25,144,0,6,0,0,0,0,0,0,-32294,0,0,0,4193,0,237773,0
237804,-410,64,8160,-18,13,26,9823,3,1,4,5160,168,-20,25,144,0,6,0,0,0,0,0,0,-32294,0,0,0,4194,0,237784,0
237814,-442,74,8162,-21,12,28,9823,7,1,-2,5160,171,-1,25,144,0,6,0,0,0,0,0,0,-32295,0,0,0,4194,0,237793,0
237824,-416,80,8130,-21,19,26,9823,0,3,3,5160,174,-20,25,144,0,6,0,0,0,0,0,0,-32293,0,0,0,4194,0,237803,0
237834,-428,66,8162,-16,14,22,9823,2,1,0,5168,175,-15,25,144,0,6,0,0,0,0,0,0,-32294,0,0,0,4195,0,237814,0
237844,-436,76,8170,-18,15,27,9822,3,1,0,5160,175,-18,25,144,0,6,0,0,0,0,0,0,-32294,0,0,0,4195,0,237838,0
237854,-414,52,8166,-14,15,24,9823,-1,2,4,5168,173,-13,25,144,0,6,0,0,0,0,0,0,-32294,0,0,0,4193,0,237840,0
237864,-434,92,8172,-18,18,29,9823,-5,-1,2,5160,171,-25,25,144,0,6,0,0,0,0,0,0,-32294,0,0,0,4194,0,237845,0
237874,-416,68,8198,-17,17,23,9822,-10,-2,1,5168,171,-27,25,144,0,6,0,0,0,0,0,0,-32294,0,0,0,4194,0,237854,0
237884,-398,94,8188,-19,18,25,9823,5,-1,7,5160,172,-49,25,144,0,6,0,0,0,0,0,0,-32294,0,0,0,4193,0,237862,0
237894,-396,100,8174,-17,13,28,9822,-3,0,7,5160,172,-49,25,144,0,6,0,0,0,0,0,0,-32293,0,0,0,4194,0,237874,0
237904,-406,62,8156,-15,11,24,9823,-1,1,2,5168,172,-49,25,144,0,6,0,0,0,0,0,0,-32294,0,0,0,4194,0,237883,0
237914,-424,42,8162,-14,16,26,9823,2,2,4,5160,172,-49,25,144,0,6,0,0,0,0,0,0,-32294,0,0,0,4193,0,237893,0
237924,-430,68,8150,-18,15,27,9823,0,3,4,5168,176,-37,25,144,0,6,0,0,0,0,0,0,-32294,0,0,0,4194,0,237905,0
237934,-428,84,8174,-15,17,30,9823,-2,-2,3,5160,175,-16,25,144,0,6,0,0,0,0,0,0,-32294,0,0,0,4193,0,237923,0
237944,-418,80,8168,-20,18,25,9823,-1,0,6,5160,174,-5,25,144,0,6,0,0,0,0,0,0,-32295,0,0,0,4194,0,237928,0
237954,-398,78,8152,-16,12,27,9823,-2,2,4,5160,175,14,25,144,0,6,0,0,0,0,0,0,-32294,0,0,0,4193,0,237938,0
237964,-392,60,8162,-18,12,24,9823,3,-3,3,5160,174,16,25,144,0,6,0,0,0,0,0,0,-32293,0,0,0,4194,0,237943,0
237974,-384,68,8168,-18,14,24,9824,5,7,3,5160,176,41,25,144,0,6,0,0,0,0,0,0,-32294,0,0,0,4194,0,237967,0
237984,-410,94,8178,-20,15,30,9823,0,-2,5,5160,177,50,25,144,0,6,0,0,0,0,0,0,-32293,0,0,0,4194,0,237975,0
237994,-376,80,8166,-21,14,30,9823,0,-1,2,5168,180,66,25,144,0,6,0,0,0,0,0,0,-32294,0,0,0,4193,0,237980,0
238004,-390,92,8166,-13,14,26,9824,2,3,2,5168,180,67,25,144,0,6,0,0,0,0,0,0,-32294,0,0,0,4193,0,237990,0
238014,-408,56,8154,-16,18,25,9822,1,-1,4,5160,180,50,25,144,0,6,0,0,0,0,0,0,-32293,0,0,0,4194,0,237995,0
238024,-432,66,8090,-14,18,25,9822,-3,0,1,5168,176,35,25,144,0,6,0,0,0,0,0,0,-32293,0,0,0,4193,0,238027,0
238034,-446,78,8170,-18,11,29,9823,2,1,3,5168,176,22,25,144,0,6,0,0,0,0,0,0,-32294,0,0,0,4193,0,238035,0
238044,-416,76,8142,-12,14,24,9822,0,7,2,5160,176,32,25,144,0,6,0,0,0,0,0,0,-32293,0,0,0,4194,0,238046,0
238054,-380,56,8164,-13,13,25,9823,0,0,5,5168,181,57,25,144,0,6,0,0,0,0,0,0,-32293,0,0,0,4194,0,238048,0
238064,-412,86,8162,-14,11,30,9822,1,1,5,5160,182,87,25,144,0,6,0,0,0,0,0,0,-32294,0,0,0,4194,0,238053,0
238074,-398,66,8190,-18,15,26,9823,1,-3,1,5160,183,65,25,144,0,6,0,0,0,0,0,0,-32293,0,0,0,4193,0,238064,0
238084,-392,74,8184,-16,5,27,9822,-9,1,2,5160,185,55,25,144,0,6,0,0,0,0,0,0,-32293,0,0,0,4194,0,238073,0
238094,-418,66,8174,-15,16,25,9823,1,0,0,5168,183,54,25,144,0,6,0,0,0,0,0,0,-32293,0,0,0,4194,0,238077,0
238104,-418,78,8180,-19,14,27,9823,5,1,2,5168,180,58,25,144,0,6,0,0,0,0,0,0,-32294,0,0,0,4194,0,238095,0
238114,-410,62,8182,-18,20,23,9823,-1,1,0,5160,175,52,25,144,0,6,0,0,0,0,0,0,-32294,0,0,0,4193,0,238107,0
238124,-400,82,8150,-15,18,25,9823,-2,3,0,5160,173,51,25,144,0,6,0,0,0,0,0,0,-32293,0,0,0,4193,0,238109,0
238134,-408,46,8170,-18,16,28,9822,1,-1,4,5184,179,64,25,144,0,6,0,0,0,0,0,0,-32293,0,0,0,4194,0,238114,0
238144,-434,78,8162,-14,12,28,9822,-1,0,2,5160,182,69,25,144,0,6,0,0,0,0,0,0,-32293,0,0,0,4194,0,238147,0
238154,-382,78,8174,-16,19,27,9823,1,0,-1,5176,183,81,25,144,0,6,0,0,0,0,0,0,-32294,0,0,0,4193,0,238152,0
238164,-400,76,8142,-20,12,27,9824,6,0,4,5168,182,80,25,144,0,6,0,0,0,0,0,0,-32293,0,0,0,4193,0,238169,0
238174,-378,92,8160,-15,15,28,9822,-6,3,1,5160,181,68,25,144,0,6,0,0,0,0,0,0,-32294,0,0,0,4193,0,238184,0
238184,-390,96,8184,-18,13,21,9822,3,5,1,5160,182,60,25,144,0,6,0,0,0,0,0,0,-32294,0,0,0,4193,0,238189,0
238194,-396,84,8182,-19,10,27,9822,-2,-1,1,5168,180,65,25,144,0,6,0,0,0,0,0,0,-32293,0,0,0,4193,0,238200,0
238204,-414,62,8164,-14,16,23,9823,1,6,0,5176,180,66,25,144,0,6,0,0,0,0,0,0,-32294,0,0,0,4193,0,238207,0
238214,-408,70,8136,-18,12,27,9823,0,3,0,5160,181,84,25,144,0,6,0,0,0,0,0,0,-32293,0,0,0,4194,0,238212,0
238224,-412,72,8180,-16,18,25,9823,-2,-1,2,5168,179,68,25,144,0,6,0,0,0,0,0,0,-32293,0,0,0,4194,0,238234,0
238234,-450,84,8186,-20,14,30,9823,2,-2,2,5160,179,67,25,144,0,6,0,0,0,0,0,0,-32295,0,0,0,4194,0,238244,0
238244,-420,54,8134,-18,13,24,9822,0,-1,4,5160,180,57,25,144,0,6,0,0,0,0,0,0,-32295,0,0,0,4194,0,238249,0
238254,-408,76,8168,-17,19,31,9824,0,-2,2,5168,180,74,25,144,0,6,0,0,0,0,0,0,-32294,0,0,0,4194,0,238259,0
238264,-382,86,8160,-15,12,28,9824,3,2,1,5160,180,59,25,144,0,6,0,0,0,0,0,0,-32293,0,0,0,4194,0,238265,0
238274,-398,70,8172,-15,14,26,9822,1,1,5,5168,179,41,25,144,0,6,0,0,0,0,0,0,-32293,0,0,0,4194,0,238268,0
238284,-430,90,8184,-15,19,30,9822,-7,-1,0,5160,179,27,25,144,0,6,0,0,0,0,0,0,-32293,0,0,0,4194,0,238273,0
238294,-428,74,8162,-19,14,28,9821,-5,0,5,5168,174,20,25,144,0,6,0,0,0,0,0,0,-32294,0,0,0,4194,0,238277,0
238304,-416,76,8176,-21,15,22,9822,-6,2,0,5168,177,36,25,144,0,6,0,0,0,0,0,0,-32294,0,0,0,4194,0,238284,0
238314,-412,66,8154,-15,18,25,9823,3,5,3,5168,178,38,25,144,0,6,0,0,0,0,0,0,-32293,0,0,0,4194,0,238297,0
238324,-426,86,8174,-19,15,26,9823,5,3,4,5168,184,48,25,144,0,6,0,0,0,0,0,0,-32294,0,0,0,4194,0,238302,0
238334,-424,70,8168,-15,13,24,9824,9,-1,0,5168,184,46,25,144,0,6,0,0,0,0,0,0,-32295,0,0,0,4195,0,238313,0
238344,-412,62,8170,-19,13,29,9823,2,-2,7,5168,181,55,25,144,0,6,0,0,0,0,0,0,-32295,0,0,0,4193,0,238347,0
238354,-418,62,8178,-16,13,27,9823,3,-3,2,5168,182,65,25,144,0,6,0,0,0,0,0,0,-32295,0,0,0,4193,0,238358,0
238364,-400,88,8188,-17,18,25,9823,0,3,4,5176,179,73,25,144,0,6,0,0,0,0,0,0,-32293,0,0,0,4194,0,238363,0
238374,-398,60,8158,-18,17,23,9822,-8,-4,0,5168,178,75,25,144,0,6,0,0,0,0,0,0,-32295,0,0,0,4194,0,238377,0
238384,-402,84,8172,-16,12,25,9823,4,-3,0,5168,179,64,25,144,0,6,0,0,0,0,0,0,-32294,0,0,0,4194,0,238380,0
238394,-414,92,8164,-17,16,26,9823,1,-3,6,5168,180,52,25,144,0,6,0,0,0,0,0,0,-32294,0,0,0,4194,0,238383,0
238404,-436,74,8172,-21,15,27,9823,6,6,0,5160,182,53,25,144,0,6,0,0,0,0,0,0,-32294,0,0,0,4193,0,238395,0
238414,-412,54,8170,-16,15,28,9823,-3,1,1,5160,183,63,25,144,0,6,0,0,0,0,0,0,-32294,0,0,0,4194,0,238397,0
238424,-418,80,8178,-18,17,24,9823,1,0,0,5168,182,69,25,144,0,6,0,0,0,0,0,0,-32293,0,0,0,4193,0,238402,0
238434,-408,60,8170,-16,17,22,9821,-6,2,1,5160,184,68,25,144,0,6,0,0,0,0,0,0,-32294,0,0,0,4193,0,238425,0
238444,-400,68,8148,-16,16,27,9822,2,0,4,5160,182,43,25,144,0,6,0,0,0,0,0,0,-32294,0,0,0,4194,0,238455,0
238454,-408,70,8170,-21,16,25,9823,-1,-2,1,5168,182,54,25,144,0,6,0,0,0,0,0,0,-32294,0,0,0,4193,0,238460,0
238464,-410,72,8174,-17,15,27,9823,2,3,8,5160,180,56,25,144,0,6,0,0,0,0,0,0,-32294,0,0,0,4194,0,238467,0
238474,-434,52,8148,-16,21,23,9824,7,2,3,5168,180,44,25,144,0,6,0,0,0,0,0,0,-32294,0,0,0,4194,0,238474,0
238484,-422,82,8174,-19,18,28,9822,-7,0,6,5168,179,30,25,144,0,6,0,0,0,0,0,0,-32294,0,0,0,4194,0,238493,0
238494,-374,70,8156,-14,13,28,9823,-1,0,2,5160,175,15,25,144,0,6,0,0,0,0,0,0,-32296,0,0,0,4194,0,238497,0
238504,-394,92,8166,-13,15,28,9823,1,4,4,5168,173,32,25,144,0,6,0,0,0,0,0,0,-32295,0,0,0,4195,0,238507,0
238514,-386,68,8168,-19,13,19,9823,0,1,3,5160,173,43,25,144,0,6,0,0,0,0,0,0,-32294,0,0,0,4193,0,238512,0
238524,-426,78,8158,-17,15,28,9823,0,4,2,5168,179,49,25,144,0,6,0,0,0,0,0,0,-32294,0,0,0,4193,0,238523,0
238534,-426,74,8164,-21,14,25,9823,0,-2,0,5168,182,45,25,144,0,6,0,0,0,0,0,0,-32294,0,0,0,4194,0,238528,0
238544,-406,70,8166,-18,13,29,9822,0,-2,6,5168,182,63,25,144,0,6,0,0,0,0,0,0,-32294,0,0,0,4193,0,238542,0
238554,-408,74,8158,-19,14,29,9822,1,1,3,5168,179,59,25,144,0,6,0,0,0,0,0,0,-32294,0,0,0,4194,0,238550,0
238564,-394,92,8162,-14,14,23,9824,5,-2,3,5160,179,71,25,144,0,6,0,0,0,0,0,0,-32294,0,0,0,4194,0,238557,0
238574,-430,104,8170,-14,13,24,9822,-5,1,2,5160,179,56,25,144,0,6,0,0,0,0,0,0,-32294,0,0,0,4194,0,238560,0
238584,-428,78,8150,-13,11,26,9823,2,0,5,5160,182,54,25,144,0,6,0,0,0,0,0,0,-32293,0,0,0,4194,0,238565,0
238594,-378,78,8162,-20,15,30,9821,-5,-2,6,5160,180,63,25,144,0,6,0,0,0,0,0,0,-32294,0,0,0,4193,0,238573,0
238604,-434,46,8146,-18,12,25,9823,2,3,1,5168,179,54,25,144,0,6,0,0,0,0,0,0,-32294,0,0,0,4193,0,238583,0
238614,-408,84,8150,-16,17,27,9824,4,-5,1,5160,181,63,25,144,0,6,0,0,0,0,0,0,-32294,0,0,0,4195,0,238609,0
238624,-406,78,8160,-19,14,24,9823,0,-1,1,5160,182,91,25,144,0,6,0,0,0,0,0,0,-32293,0,0,0,4194,0,238620,0
238634,-416,84,8174,-14,12,27,9823,2,0,0,5168,181,87,25,144,0,6,0,0,0,0,0,0,-32294,0,0,0,4192,0,238625,0
238644,-400,80,8152,-20,18,23,9822,0,0,4,5168,182,79,25,144,0,6,0,0,0,0,0,0,-32294,0,0,0,4194,0,238627,0
238654,-428,60,8170,-20,16,28,9823,1,-2,0,5160,182,51,25,144,0,6,0,0,0,0,0,0,-32294,0,0,0,4194,0,238632,0
238664,-410,96,8166,-12,12,28,9823,0,1,4,5168,182,20,25,144,0,6,0,0,0,0,0,0,-32294,0,0,0,4194,0,238643,0
238674,-374,74,8170,-19,18,22,9822,-5,-1,1,5160,178,17,25,144,0,6,0,0,0,0,0,0,-32293,0,0,0,4194,0,238665,0
238684,-406,82,8166,-10,17,28,9822,-1,-3,0,5168,174,20,25,144,0,6,0,0,0,0,0,0,-32294,0,0,0,4193,0,238676,0
238694,-392,64,8180,-15,16,29,9822,-4,0,4,5168,179,52,25,144,0,6,0,0,0,0,0,0,-32294,0,0,0,4195,0,238679,0
238704,-404,66,8172,-18,13,25,9822,-5,-2,3,5168,179,61,25,144,0,6,0,0,0,0,0,0,-32293,0,0,0,4194,0,238686,0
238714,-410,78,8180,-15,9,24,9823,0,1,4,5176,181,62,25,144,0,6,0,0,0,0,0,0,-32293,0,0,0,4193,0,238692,0
238724,-402,70,8158,-18,16,23,9823,0,1,4,5168,181,67,25,144,0,6,0,0,0,0,0,0,-32294,0,0,0,4193,0,238708,0
238734,-390,76,8192,-17,14,30,9821,-1,-4,4,5160,181,85,25,144,0,6,0,0,0,0,0,0,-32293,0,0,0,4193,0,238717,0
238744,-392,90,8168,-16,12,29,9823,-2,4,6,5160,182,75,25,144,0,6,0,0,0,0,0,0,-32294,0,0,0,4194,0,238725,0
238754,-400,56,8158,-16,16,28,9821,-7,-4,1,5160,179,82,25,144,0,6,0,0,0,0,0,0,-32294,0,0,0,4195,0,238732,0
238764,-398,80,8182,-18,14,26,9823,4,4,5,5168,179,85,25,144,0,6,0,0,0,0,0,0,-32294,0,0,0,4194,0,238745,0
238774,-378,80,8158,-19,16,24,9823,-4,4,0,5168,181,74,25,144,0,6,0,0,0,0,0,0,-32294,0,0,0,4194,0,238797,0
238784,-388,60,8162,-18,18,24,9823,0,-1,-2,5160,182,61,25,144,0,6,0,0,0,0,0,0,-32294,0,0,0,4194,0,238805,0
238794,-454,74,8154,-14,18,29,9823,-1,1,6,5160,180,56,25,144,0,6,0,0,0,0,0,0,-32294,0,0,0,4194,0,238807,0
238804,-406,66,8160,-19,15,24,9823,3,1,1,5160,182,74,25,144,0,6,0,0,0,0,0,0,-32294,0,0,0,4194,0,238815,0
238814,-394,58,8150,-16,13,27,9822,2,2,2,5160,181,85,25,144,0,6,0,0,0,0,0,0,-32294,0,0,0,4195,0,238827,0
238824,-432,78,8186,-16,19,26,9822,0,2,1,5160,183,76,25,144,0,6,0,0,0,0,0,0,-32294,0,0,0,4195,0,238829,0
238834,-386,94,8178,-22,13,28,9822,-1,-3,4,5168,181,60,25,144,0,6,0,0,0,0,0,0,-32294,0,0,0,4194,0,238834,0
238844,-426,70,8162,-17,9,26,9822,-8,-5,5,5168,180,53,25,144,0,6,0,0,0,0,0,0,-32294,0,0,0,4193,0,238844,0
238854,-422,72,8168,-16,8,24,9823,0,5,0,5168,180,54,25,144,0,6,0,0,0,0,0,0,-32294,0,0,0,4194,0,238849,0
238864,-422,56,8176,-14,11,27,9823,8,0,2,5168,184,71,25,144,0,6,0,0,0,0,0,0,-32293,0,0,0,4193,0,238854,0
238874,-370,88,8168,-21,18,28,9823,3,5,6,5160,189,74,25,144,0,6,0,0,0,0,0,0,-32292,0,0,0,4195,0,238865,0
238884,-396,66,8160,-21,15,26,9823,6,-1,2,5168,189,81,25,144,0,6,0,0,0,0,0,0,-32293,0,0,0,4194,0,238872,0
238894,-430,74,8166,-16,17,26,9822,-2,1,5,5160,183,54,25,144,0,6,0,0,0,0,0,0,-32294,0,0,0,4194,0,238875,0
238904,-374,82,8138,-15,20,27,9822,-9,-2,-2,5168,180,51,25,144,0,6,0,0,0,0,0,0,-32295,0,0,0,4194,0,238886,0
238914,-410,80,8182,-16,15,24,9824,6,3,1,5168,180,45,25,144,0,6,0,0,0,0,0,0,-32293,0,0,0,4194,0,238895,0
238924,-406,96,8150,-24,15,28,9823,2,-1,2,5168,181,60,25,144,0,6,0,0,0,0,0,0,-32295,0,0,0,4194,0,238905,0
238934,-420,76,8150,-19,20,28,9822,-2,-3,3,5168,177,90,25,144,0,6,0,0,0,0,0,0,-32294,0,0,0,4194,0,238913,0
238944,-416,96,8156,-18,20,27,9823,-1,-2,7,5160,179,106,25,144,0,6,0,0,0,0,0,0,-32295,0,0,0,4194,0,238925,0
238954,-416,84,8182,-15,10,27,9823,-1,-1,0,5160,182,96,25,144,0,6,0,0,0,0,0,0,-32295,0,0,0,4194,0,238932,0
238964,-446,58,8212,-20,15,26,9823,0,2,2,5168,184,79,25,144,0,6,0,0,0,0,0,0,-32295,0,0,0,4194,0,238948,0
238974,-396,60,8154,-20,16,30,9822,-1,-3,0,5168,182,64,25,144,0,6,0,0,0,0,0,0,-32293,0,0,0,4193,0,238954,0
238984,-398,40,8186,-19,17,27,9823,5,1,2,5168,183,69,25,144,0,6,0,0,0,0,0,0,-32292,0,0,0,4194,0,238970,0
238994,-474,88,8168,-18,14,25,9823,6,2,6,5160,184,68,25,144,0,6,0,0,0,0,0,0,-32293,0,0,0,4194,0,238973,0
239004,-440,70,8128,-18,14,28,9823,-3,5,6,5168,188,71,25,144,0,6,0,0,0,0,0,0,-32294,0,0,0,4194,0,238984,0
239014,-436,78,8146,-18,16,30,9824,1,1,3,5160,187,71,25,144,0,6,0,0,0,0,0,0,-32295,0,0,0,4195,0,238998,0
239024,-426,106,8148,-16,15,26,9823,5,2,4,5160,189,80,25,144,0,6,0,0,0,0,0,0,-32293,0,0,0,4193,0,239006,0
239034,-414,72,8178,-17,18,27,9823,1,0,4,5192,185,61,25,144,0,6,0,0,0,0,0,0,-32294,0,0,0,4194,0,239019,0
