state_time,accelx,accely,accelz,gyrox,gyroy,gyroz,mot_ang,mot_vel,mot_acc,mot_cur,mot_volt,batt_volt,batt_curr,temperature,status_mn,status_ex,status_re,genvar_0,genvar_1,genvar_2,genvar_3,genvar_4,genvar_5,genvar_6,genvar_7,genvar_8,genvar_9,ank_ang,ank_vel,sys_time,event flags
225096,-274,-484,-8294,-20,-38,35,3988,5,0,3,0,191,81,25,144,0,6,0,0,0,0,0,0,-32331,0,0,0,3376,0,2223,0
225106,-280,-488,-8304,-14,-42,37,3987,-8,1,0,0,193,59,25,144,0,6,0,0,0,0,0,0,-32332,0,0,0,3376,0,225096,0
225116,-280,-470,-8290,-18,-42,44,3987,0,-2,1,0,192,56,25,144,0,6,0,0,0,0,0,0,-32332,0,0,0,3376,0,225096,0
225126,-284,-470,-8282,-13,-43,39,3988,0,6,-5,0,195,60,25,144,0,6,0,0,0,0,0,0,-32332,0,0,0,3376,0,225096,0
225136,-290,-472,-8274,-16,-40,41,3985,-7,3,5,0,195,79,25,144,0,6,0,0,0,0,0,0,-32331,0,0,0,3376,0,225096,0
225146,-294,-488,-8294,-13,-40,42,3987,-5,0,2,0,193,127,25,144,0,6,0,0,0,0,0,0,-32332,0,0,0,3376,0,225096,0
225156,-290,-466,-8288,-17,-38,38,3986,-9,-5,-1,0,192,100,25,144,0,6,0,0,0,0,0,0,-32332,0,0,0,3376,0,225096,0
225166,-282,-474,-8294,-16,-43,39,3986,-6,5,0,0,195,95,25,144,0,6,0,0,0,0,0,0,-32331,0,0,0,3376,0,225096,0
225176,-286,-442,-8292,-16,-43,43,3988,1,0,1,0,197,101,25,144,0,6,0,0,0,0,0,0,-32331,0,0,0,3376,0,225096,0
225186,-258,-470,-8298,-14,-41,41,3987,1,2,0,0,204,111,25,144,0,6,0,0,0,0,0,0,-32331,0,0,0,3376,0,225096,0
225196,-256,-478,-8300,-19,-42,40,3987,2,-2,0,0,200,97,25,144,0,6,0,0,0,0,0,0,-32332,0,0,0,3376,0,225096,0
225206,-272,-458,-8286,-15,-45,37,3987,-11,-1,-2,0,196,77,25,144,0,6,0,0,0,0,0,0,-32330,0,0,0,3376,0,225096,0
225216,-280,-480,-8306,-17,-39,39,3988,-3,-1,1,0,193,62,25,144,0,6,0,0,0,0,0,0,-32331,0,0,0,3376,0,225102,0
225226,-272,-464,-8284,-16,-42,39,3986,-11,-6,0,0,198,81,25,144,0,6,0,0,0,0,0,0,-32331,0,0,0,3376,0,225108,0
225236,-268,-478,-8274,-13,-43,40,3987,-4,-3,2,0,194,73,25,144,0,6,0,0,0,0,0,0,-32330,0,0,0,3376,0,225118,0
225246,-306,-444,-8292,-17,-40,41,3987,4,1,0,0,188,81,25,144,0,6,0,0,0,0,0,0,-32330,0,0,0,3375,0,225150,0
225256,-292,-464,-8276,-15,-36,39,3988,5,4,0,0,190,68,25,144,0,6,0,0,0,0,0,0,-32331,0,0,0,3376,0,225152,0
225266,-290,-442,-8298,-17,-40,41,3987,0,2,3,0,195,104,25,144,0,6,0,0,0,0,0,0,-32330,0,0,0,3376,0,225157,0
225276,-266,-468,-8290,-17,-42,37,3986,-3,-3,-2,0,197,105,25,144,0,6,0,0,0,0,0,0,-32331,0,0,0,3376,0,225160,0
225286,-286,-452,-8292,-17,-40,38,3989,4,5,-1,0,192,81,25,144,0,6,0,0,0,0,0,0,-32331,0,0,0,3376,0,225168,0
225296,-284,-468,-8274,-19,-41,44,3988,0,-2,1,0,194,69,25,144,0,6,0,0,0,0,0,0,-32330,0,0,0,3377,0,225179,0
225306,-278,-472,-8276,-12,-39,36,3989,10,0,-2,0,194,76,25,144,0,6,0,0,0,0,0,0,-32331,0,0,0,3376,0,225189,0
225316,-282,-460,-8322,-15,-36,43,3988,1,1,2,0,188,84,25,144,0,6,0,0,0,0,0,0,-32331,0,0,0,3376,0,225199,0
225326,-302,-466,-8270,-17,-44,39,3987,-1,-2,-6,0,190,83,25,144,0,6,0,0,0,0,0,0,-32331,0,0,0,3376,0,225209,0
225336,-286,-454,-8308,-13,-41,40,3988,3,-1,1,0,186,49,25,144,0,6,0,0,0,0,0,0,-32331,0,0,0,3376,0,225219,0
225346,-284,-468,-8286,-18,-42,37,3987,-2,-1,-1,0,187,44,25,144,0,6,0,0,0,0,0,0,-32330,0,0,0,3376,0,225229,0
225356,-300,-450,-8300,-16,-42,39,3988,8,3,-1,0,196,64,25,144,0,6,0,0,0,0,0,0,-32330,0,0,0,3376,0,225238,0
225366,-280,-466,-8296,-20,-41,43,3987,0,3,-2,0,198,98,25,144,0,6,0,0,0,0,0,0,-32331,0,0,0,3376,0,225248,0
225376,-288,-450,-8284,-13,-40,41,3987,-1,-1,-2,0,201,103,25,144,0,6,0,0,0,0,0,0,-32331,0,0,0,3376,0,225259,0
225386,-278,-456,-8320,-19,-34,40,3988,2,0,2,0,192,98,25,144,0,6,0,0,0,0,0,0,-32331,0,0,0,3377,0,225269,0
225396,-270,-460,-8280,-19,-46,41,3986,-3,-3,0,0,191,83,25,144,0,6,0,0,0,0,0,0,-32331,0,0,0,3376,0,225278,0
225406,-304,-456,-8282,-12,-39,43,3988,-2,2,0,0,195,127,25,144,0,6,0,0,0,0,0,0,-32331,0,0,0,3376,0,225303,0
225416,-292,-476,-8336,-12,-40,39,3988,4,-1,-5,0,197,108,25,144,0,6,0,0,0,0,0,0,-32331,0,0,0,3376,0,225317,0
225426,-262,-436,-8284,-13,-42,39,3987,-7,0,0,0,200,101,25,144,0,6,0,0,0,0,0,0,-32331,0,0,0,3376,0,225320,0
225436,-290,-470,-8280,-16,-39,34,3988,2,-6,1,0,202,81,25,144,0,6,0,0,0,0,0,0,-32330,0,0,0,3376,0,225322,0
225446,-262,-466,-8270,-17,-39,37,3987,0,-1,6,0,200,84,25,144,0,6,0,0,0,0,0,0,-32331,0,0,0,3376,0,225328,0
225456,-300,-476,-8274,-17,-38,41,3989,4,0,-2,0,196,68,25,144,0,6,0,0,0,0,0,0,-32331,0,0,0,3376,0,225339,0
225466,-308,-454,-8288,-21,-38,43,3988,-5,3,-1,0,195,86,25,144,0,6,0,0,0,0,0,0,-32332,0,0,0,3376,0,225349,0
225476,-296,-488,-8238,-16,-43,35,3989,5,1,-3,0,191,63,25,144,0,6,0,0,0,0,0,0,-32331,0,0,0,3376,0,225374,0
225486,-290,-450,-8314,-20,-38,42,3987,-7,-2,1,0,193,80,25,144,0,6,0,0,0,0,0,0,-32331,0,0,0,3376,0,225379,0
225496,-278,-458,-8292,-18,-42,37,3988,1,3,0,0,193,77,25,144,0,6,0,0,0,0,0,0,-32330,0,0,0,3376,0,225382,0
225506,-284,-474,-8290,-15,-41,37,3987,-9,2,-1,0,191,71,25,144,0,6,0,0,0,0,0,0,-32331,0,0,0,3376,0,225388,0
225516,-282,-472,-8298,-21,-40,40,3987,4,-6,-1,0,189,54,25,144,0,6,0,0,0,0,0,0,-32330,0,0,0,3376,0,225403,0
225526,-284,-450,-8284,-11,-42,40,3987,0,5,0,0,194,58,25,144,0,6,0,0,0,0,0,0,-32331,0,0,0,3376,0,225429,0
225536,-282,-444,-8308,-15,-41,41,3988,-2,3,0,0,189,94,25,144,0,6,0,0,0,0,0,0,-32330,0,0,0,3376,0,225455,0
225546,-308,-454,-8260,-17,-41,37,3987,-4,-1,3,0,188,102,25,144,0,6,0,0,0,0,0,0,-32330,0,0,0,3376,0,225480,0
225556,-284,-444,-8282,-15,-41,43,3988,5,0,-3,0,187,81,25,144,0,6,0,0,0,0,0,0,-32332,0,0,0,3376,0,225504,0
225566,-294,-470,-8280,-15,-40,42,3986,-2,-1,-1,0,193,72,25,144,0,6,0,0,0,0,0,0,-32330,0,0,0,3376,0,225530,0
225576,-274,-448,-8282,-16,-45,42,3987,4,-1,-1,0,197,50,25,144,0,6,0,0,0,0,0,0,-32330,0,0,0,3376,0,225555,0
225586,-286,-444,-8298,-16,-38,39,3987,-3,0,2,0,196,62,25,144,0,6,0,0,0,0,0,0,-32331,0,0,0,3376,0,225601,0
225596,-286,-478,-8278,-15,-39,40,3988,-7,2,3,0,193,31,25,144,0,6,0,0,0,0,0,0,-32331,0,0,0,3376,0,225601,0
225606,-276,-446,-8318,-16,-39,39,3989,11,0,-3,0,191,27,25,144,0,6,0,0,0,0,0,0,-32332,0,0,0,3376,0,225601,0
225616,-270,-476,-8290,-19,-40,42,3988,-1,5,-2,0,189,31,25,144,0,6,0,0,0,0,0,0,-32331,0,0,0,3376,0,225601,0
225626,-274,-468,-8290,-8,-40,38,3988,0,1,0,0,191,40,25,144,0,6,0,0,0,0,0,0,-32331,0,0,0,3377,0,225602,0
225636,-268,-456,-8284,-17,-39,42,3987,0,-3,1,0,190,48,25,144,0,6,0,0,0,0,0,0,-32331,0,0,0,3377,0,225606,0
225646,-280,-476,-8284,-14,-43,46,3989,-1,6,1,0,193,51,25,144,0,6,0,0,0,0,0,0,-32331,0,0,0,3376,0,225606,0
225656,-274,-472,-8284,-16,-39,39,3988,-2,-2,-5,0,193,65,25,144,0,6,0,0,0,0,0,0,-32332,0,0,0,3376,0,225606,0
225666,-286,-466,-8284,-17,-43,39,3987,-7,-2,-1,0,198,73,25,144,0,6,0,0,0,0,0,0,-32331,0,0,0,3376,0,225606,0
225676,-288,-474,-8276,-14,-41,42,3988,0,1,1,0,195,69,25,144,0,6,0,0,0,0,0,0,-32331,0,0,0,3377,0,225607,0
225686,-302,-482,-8294,-17,-45,38,3987,1,0,1,0,189,42,25,144,0,6,0,0,0,0,0,0,-32331,0,0,0,3376,0,225613,0
225696,-314,-474,-8274,-15,-36,37,3987,3,3,1,0,187,38,25,144,0,6,0,0,0,0,0,0,-32331,0,0,0,3377,0,225613,0
225706,-282,-458,-8296,-13,-41,43,3988,0,-2,-5,0,191,58,25,144,0,6,0,0,0,0,0,0,-32331,0,0,0,3376,0,225613,0
225716,-282,-458,-8286,-13,-42,37,3988,6,-5,-1,0,193,66,25,144,0,6,0,0,0,0,0,0,-32331,0,0,0,3376,0,225613,0
225726,-290,-456,-8296,-16,-33,42,3987,-4,4,-1,0,191,42,25,144,0,6,0,0,0,0,0,0,-32331,0,0,0,3376,0,225614,0
225736,-288,-464,-8302,-15,-42,41,3988,-3,-2,-1,0,190,15,25,144,0,6,0,0,0,0,0,0,-32331,0,0,0,3377,0,225664,0
225746,-262,-466,-8286,-17,-35,38,3987,-8,2,5,0,190,26,25,144,0,6,0,0,0,0,0,0,-32331,0,0,0,3378,0,225689,0
225756,-292,-496,-8290,-12,-43,39,3988,-1,2,0,0,194,41,25,144,0,6,0,0,0,0,0,0,-32331,0,0,0,3376,0,225715,0
225766,-292,-474,-8292,-13,-44,40,3987,0,3,1,0,196,43,25,144,0,6,0,0,0,0,0,0,-32332,0,0,0,3378,0,225740,0
225776,-286,-462,-8298,-16,-37,45,3987,-5,3,0,0,196,30,25,144,0,6,0,0,0,0,0,0,-32331,0,0,0,3376,0,225787,0
225786,-272,-472,-8292,-20,-41,34,3989,5,5,0,0,191,22,25,144,0,6,0,0,0,0,0,0,-32331,0,0,0,3377,0,225787,0
225796,-290,-464,-8256,-15,-37,43,3988,-1,3,1,0,193,40,25,144,0,6,0,0,0,0,0,0,-32330,0,0,0,3378,0,225787,0
225806,-296,-478,-8312,-16,-37,40,3987,-4,1,-1,0,196,51,25,144,0,6,0,0,0,0,0,0,-32330,0,0,0,3376,0,225787,0
225816,-284,-436,-8270,-21,-41,34,3988,2,3,1,0,194,28,25,144,0,6,0,0,0,0,0,0,-32331,0,0,0,3376,0,225788,0
225826,-280,-468,-8288,-18,-38,42,3988,-5,-4,0,0,191,26,25,144,0,6,0,0,0,0,0,0,-32331,0,0,0,3376,0,225802,0
225836,-282,-458,-8294,-17,-43,39,3986,-10,1,0,0,188,27,25,144,0,6,0,0,0,0,0,0,-32331,0,0,0,3377,0,225802,0
225846,-270,-470,-8316,-19,-38,40,3988,-8,-3,0,0,187,57,25,144,0,6,0,0,0,0,0,0,-32331,0,0,0,3377,0,225802,0
225856,-282,-460,-8294,-16,-48,34,3987,0,0,-1,0,190,57,25,144,0,6,0,0,0,0,0,0,-32331,0,0,0,3376,0,225802,0
225866,-290,-480,-8268,-18,-39,44,3988,3,-2,-1,0,191,46,25,144,0,6,0,0,0,0,0,0,-32331,0,0,0,3377,0,225826,0
225876,-306,-472,-8322,-14,-36,39,3987,-1,-6,2,0,191,50,25,144,0,6,0,0,0,0,0,0,-32330,0,0,0,3378,0,225973,0
225886,-312,-468,-8278,-18,-42,39,3987,-2,3,-2,0,192,40,25,144,0,6,0,0,0,0,0,0,-32331,0,0,0,3377,0,225973,0
225896,-304,-468,-8264,-15,-38,36,3987,-3,-5,0,0,191,35,25,144,0,6,0,0,0,0,0,0,-32330,0,0,0,3376,0,225973,0
225906,-274,-454,-8316,-17,-39,41,3987,-1,2,-2,0,188,27,25,144,0,6,0,0,0,0,0,0,-32331,0,0,0,3376,0,225973,0
225916,-292,-488,-8302,-18,-38,39,3988,2,0,-3,0,191,19,25,144,0,6,0,0,0,0,0,0,-32331,0,0,0,3376,0,225973,0
225926,-292,-460,-8306,-12,-39,39,3987,-5,-1,0,0,194,48,25,144,0,6,0,0,0,0,0,0,-32332,0,0,0,3376,0,225973,0
225936,-268,-452,-8306,-19,-38,37,3988,3,-8,0,0,203,70,25,144,0,6,0,0,0,0,0,0,-32331,0,0,0,3376,0,225973,0
225946,-282,-476,-8280,-17,-36,41,3986,0,-3,-1,0,200,47,25,144,0,6,0,0,0,0,0,0,-32331,0,0,0,3376,0,226017,0
225956,-260,-452,-8294,-16,-37,47,3988,6,0,-4,0,200,33,25,144,0,6,0,0,0,0,0,0,-32330,0,0,0,3375,0,226099,0
225966,-284,-444,-8298,-18,-42,39,3988,3,-1,0,0,193,25,25,144,0,6,0,0,0,0,0,0,-32330,0,0,0,3376,0,226099,0
225976,-282,-464,-8298,-14,-41,43,3988,0,4,-2,0,191,46,25,144,0,6,0,0,0,0,0,0,-32331,0,0,0,3376,0,226099,0
225986,-300,-470,-8290,-15,-44,33,3988,0,-1,-2,0,185,28,25,144,0,6,0,0,0,0,0,0,-32330,0,0,0,3377,0,226099,0
225996,-264,-484,-8284,-13,-39,38,3988,0,1,0,0,187,25,25,144,0,6,0,0,0,0,0,0,-32330,0,0,0,3376,0,226099,0
226006,-264,-466,-8304,-11,-42,36,3986,-4,2,1,0,192,33,25,144,0,6,0,0,0,0,0,0,-32330,0,0,0,3376,0,226099,0
226016,-276,-476,-8308,-13,-44,41,3990,17,1,-2,0,197,44,25,144,0,6,0,0,0,0,0,0,-32331,0,0,0,3376,0,226099,0
226026,-280,-458,-8300,-16,-38,42,3987,0,1,2,0,195,29,25,144,0,6,0,0,0,0,0,0,-32330,0,0,0,3376,0,226179,0
226036,-270,-456,-8282,-15,-41,37,3987,2,2,-1,0,190,-7,25,144,0,6,0,0,0,0,0,0,-32330,0,0,0,3376,0,226179,0
226046,-282,-476,-8280,-18,-40,42,3987,2,-2,1,0,188,11,25,144,0,6,0,0,0,0,0,0,-32330,0,0,0,3377,0,226179,0
226056,-266,-464,-8288,-19,-39,37,3988,4,2,-1,0,190,13,25,144,0,6,0,0,0,0,0,0,-32330,0,0,0,3376,0,226179,0
226066,-296,-470,-8292,-17,-47,40,3988,0,-1,0,0,190,0,25,144,0,6,0,0,0,0,0,0,-32331,0,0,0,3376,0,226179,0
226076,-292,-474,-8312,-17,-41,42,3988,-3,-1,1,0,186,-10,25,144,0,6,0,0,0,0,0,0,-32330,0,0,0,3377,0,226179,0
226086,-274,-468,-8274,-16,-40,39,3987,-1,-1,0,0,185,6,25,144,0,6,0,0,0,0,0,0,-32330,0,0,0,3376,0,226179,0
226096,-296,-458,-8284,-13,-42,41,3988,3,0,1,0,191,36,25,144,0,6,0,0,0,0,0,0,-32330,0,0,0,3377,0,226186,0
226106,-282,-450,-8300,-17,-44,42,3988,4,2,4,0,199,45,25,144,0,6,0,0,0,0,0,0,-32331,0,0,0,3376,0,226186,0
226116,-268,-454,-8284,-17,-38,40,3988,3,-2,1,0,197,18,25,144,0,6,0,0,0,0,0,0,-32331,0,0,0,3377,0,226186,0
226126,-270,-482,-8292,-16,-40,39,3988,5,1,6,0,189,-9,25,144,0,6,0,0,0,0,0,0,-32330,0,0,0,3377,0,226186,0
226136,-276,-474,-8298,-16,-38,40,3987,-1,3,2,0,184,11,25,144,0,6,0,0,0,0,0,0,-32331,0,0,0,3376,0,226186,0
226146,-278,-426,-8302,-19,-38,36,3988,5,-4,2,0,185,47,25,144,0,6,0,0,0,0,0,0,-32330,0,0,0,3376,0,226186,0
226156,-246,-458,-8298,-20,-37,41,3986,-5,-2,-1,0,190,70,25,144,0,6,0,0,0,0,0,0,-32331,0,0,0,3377,0,226186,0
226166,-280,-482,-8278,-16,-42,40,3988,2,-1,0,0,194,71,25,144,0,6,0,0,0,0,0,0,-32331,0,0,0,3376,0,226187,0
226176,-280,-468,-8256,-17,-40,42,3988,0,-1,-1,0,191,66,25,144,0,6,0,0,0,0,0,0,-32332,0,0,0,3377,0,226288,0
226186,-292,-486,-8274,-13,-36,35,3988,1,1,0,0,197,101,25,144,0,6,0,0,0,0,0,0,-32330,0,0,0,3376,0,226288,0
226196,-274,-436,-8284,-17,-39,38,3986,-3,-6,0,0,189,74,25,144,0,6,0,0,0,0,0,0,-32330,0,0,0,3377,0,226288,0
226206,-278,-456,-8292,-15,-41,40,3988,3,-1,0,0,191,84,25,144,0,6,0,0,0,0,0,0,-32331,0,0,0,3376,0,226288,0
226216,-292,-450,-8318,-14,-37,41,3988,4,8,0,0,187,48,25,144,0,6,0,0,0,0,0,0,-32330,0,0,0,3376,0,226288,0
226226,-290,-456,-8296,-16,-40,42,3988,-1,4,1,0,187,41,25,144,0,6,0,0,0,0,0,0,-32331,0,0,0,3377,0,226288,0
226236,-282,-464,-8300,-16,-40,40,3986,-2,-2,0,0,189,51,25,144,0,6,0,0,0,0,0,0,-32330,0,0,0,3376,0,226288,0
226246,-274,-446,-8292,-20,-34,40,3987,-1,-1,3,0,190,69,25,144,0,6,0,0,0,0,0,0,-32330,0,0,0,3376,0,226288,0
226256,-294,-422,-8302,-11,-40,39,3989,7,2,-1,0,189,63,25,144,0,6,0,0,0,0,0,0,-32330,0,0,0,3376,0,226364,0
226266,-272,-480,-8272,-17,-41,42,3987,0,-2,-1,0,191,37,25,144,0,6,0,0,0,0,0,0,-32331,0,0,0,3376,0,226364,0
226276,-322,-462,-8274,-17,-34,37,3988,2,2,0,0,188,46,25,144,0,6,0,0,0,0,0,0,-32330,0,0,0,3376,0,226364,0
226286,-266,-446,-8280,-18,-35,39,3988,8,0,0,0,185,53,25,144,0,6,0,0,0,0,0,0,-32331,0,0,0,3376,0,226364,0
226296,-282,-434,-8316,-12,-44,40,3987,-4,1,0,0,185,73,25,144,0,6,0,0,0,0,0,0,-32330,0,0,0,3376,0,226364,0
226306,-308,-458,-8278,-18,-44,40,3987,0,-5,-1,0,188,65,25,144,0,6,0,0,0,0,0,0,-32330,0,0,0,3376,0,226372,0
226316,-278,-450,-8294,-18,-40,40,3988,1,0,-3,0,194,103,25,144,0,6,0,0,0,0,0,0,-32330,0,0,0,3377,0,226372,0
226326,-302,-474,-8290,-15,-45,41,3987,-3,-4,0,0,191,103,25,144,0,6,0,0,0,0,0,0,-32331,0,0,0,3376,0,226372,0
226336,-282,-416,-8300,-17,-37,44,3987,-3,-2,1,0,188,97,25,144,0,6,0,0,0,0,0,0,-32330,0,0,0,3376,0,226372,0
226346,-288,-462,-8284,-15,-38,44,3988,2,1,1,0,190,58,25,144,0,6,0,0,0,0,0,0,-32331,0,0,0,3376,0,226372,0
226356,-294,-484,-8276,-14,-37,43,3988,4,3,-1,0,188,33,25,144,0,6,0,0,0,0,0,0,-32331,0,0,0,3376,0,226372,0
226366,-268,-466,-8286,-16,-43,39,3986,-11,-3,-3,0,190,18,25,144,0,6,0,0,0,0,0,0,-32330,0,0,0,3376,0,226372,0
226376,-302,-460,-8276,-9,-38,39,3988,5,-3,-1,0,188,27,25,144,0,6,0,0,0,0,0,0,-32330,0,0,0,3376,0,226379,0
226386,-284,-492,-8288,-18,-38,47,3987,-2,-1,-3,0,182,37,25,144,0,6,0,0,0,0,0,0,-32331,0,0,0,3375,0,226379,0
226396,-284,-466,-8280,-17,-44,38,3987,0,-2,0,0,184,41,25,144,0,6,0,0,0,0,0,0,-32330,0,0,0,3377,0,226379,0
226406,-282,-472,-8254,-16,-44,34,3987,-5,3,0,0,189,44,25,144,0,6,0,0,0,0,0,0,-32331,0,0,0,3377,0,226379,0
226416,-274,-468,-8286,-18,-39,38,3988,7,3,0,0,189,29,25,144,0,6,0,0,0,0,0,0,-32331,0,0,0,3376,0,226379,0
226426,-290,-462,-8288,-18,-41,37,3987,-2,-1,0,0,185,38,25,144,0,6,0,0,0,0,0,0,-32330,0,0,0,3376,0,226379,0
226436,-282,-460,-8268,-19,-37,39,3987,-5,-1,-5,0,185,44,25,144,0,6,0,0,0,0,0,0,-32331,0,0,0,3376,0,226379,0
226446,-292,-444,-8296,-18,-41,39,3987,-2,-3,0,0,185,38,25,144,0,6,0,0,0,0,0,0,-32331,0,0,0,3377,0,226379,0
226456,-288,-478,-8308,-17,-37,41,3988,2,3,-1,0,187,52,25,144,0,6,0,0,0,0,0,0,-32331,0,0,0,3377,0,226382,0
226466,-278,-454,-8276,-17,-42,44,3988,2,0,-1,0,184,54,25,144,0,6,0,0,0,0,0,0,-32332,0,0,0,3377,0,226382,0
226476,-292,-464,-8302,-7,-41,42,3988,0,-1,1,0,184,68,25,144,0,6,0,0,0,0,0,0,-32330,0,0,0,3377,0,226382,0
226486,-284,-490,-8312,-16,-38,38,3987,2,-1,-4,0,184,79,25,144,0,6,0,0,0,0,0,0,-32330,0,0,0,3377,0,226382,0
226496,-274,-480,-8302,-15,-45,42,3987,7,0,0,0,188,73,25,144,0,6,0,0,0,0,0,0,-32332,0,0,0,3377,0,226383,0
226506,-252,-476,-8272,-12,-46,42,3988,6,3,-2,0,192,78,25,144,0,6,0,0,0,0,0,0,-32332,0,0,0,3376,0,226455,0
226516,-282,-420,-8296,-18,-40,35,3988,0,-4,0,0,190,78,25,144,0,6,0,0,0,0,0,0,-32331,0,0,0,3376,0,226481,0
226526,-284,-468,-8278,-14,-42,39,3987,-2,-5,1,0,188,69,25,144,0,6,0,0,0,0,0,0,-32331,0,0,0,3377,0,226508,0
226536,-282,-492,-8278,-14,-42,39,3988,-2,2,0,0,184,54,25,144,0,6,0,0,0,0,0,0,-32330,0,0,0,3376,0,226558,0
226546,-266,-438,-8290,-16,-41,43,3989,8,3,0,0,184,75,25,144,0,6,0,0,0,0,0,0,-32331,0,0,0,3376,0,226616,0
226556,-266,-466,-8286,-14,-38,42,3988,9,8,-4,0,188,56,25,144,0,6,0,0,0,0,0,0,-32330,0,0,0,3377,0,226616,0
226566,-276,-446,-8310,-14,-36,41,3988,2,6,-1,0,188,35,25,144,0,6,0,0,0,0,0,0,-32330,0,0,0,3376,0,226616,0
226576,-308,-458,-8300,-18,-42,41,3987,0,-2,-2,0,189,42,25,144,0,6,0,0,0,0,0,0,-32331,0,0,0,3376,0,226616,0
226586,-304,-466,-8296,-16,-39,40,3987,-3,-1,2,0,188,48,25,144,0,6,0,0,0,0,0,0,-32330,0,0,0,3376,0,226616,0
226596,-282,-444,-8276,-16,-45,42,3989,5,5,0,0,188,67,25,144,0,6,0,0,0,0,0,0,-32331,0,0,0,3377,0,226616,0
226606,-296,-470,-8296,-16,-40,39,3987,-1,1,1,0,189,25,25,144,0,6,0,0,0,0,0,0,-32330,0,0,0,3377,0,226718,0
226616,-274,-454,-8288,-22,-36,42,3987,0,0,-1,0,188,18,25,144,0,6,0,0,0,0,0,0,-32331,0,0,0,3376,0,226718,0
226626,-276,-496,-8288,-15,-46,42,3988,4,3,1,0,186,30,25,144,0,6,0,0,0,0,0,0,-32330,0,0,0,3376,0,226718,0
226636,-296,-444,-8278,-20,-42,42,3986,-7,-1,2,0,183,49,25,144,0,6,0,0,0,0,0,0,-32331,0,0,0,3377,0,226718,0
226646,-296,-458,-8308,-15,-40,40,3987,1,-4,0,0,184,71,25,144,0,6,0,0,0,0,0,0,-32331,0,0,0,3377,0,226718,0
226656,-298,-460,-8266,-20,-39,43,3988,5,1,0,0,185,76,25,144,0,6,0,0,0,0,0,0,-32330,0,0,0,3376,0,226771,0
226666,-270,-486,-8286,-16,-37,39,3987,-9,-1,-3,0,188,81,25,144,0,6,0,0,0,0,0,0,-32331,0,0,0,3377,0,226771,0
226676,-258,-468,-8292,-9,-41,38,3986,0,-3,-5,0,186,70,25,144,0,6,0,0,0,0,0,0,-32330,0,0,0,3376,0,226771,0
226686,-284,-466,-8294,-12,-38,37,3988,3,6,0,0,185,76,25,144,0,6,0,0,0,0,0,0,-32331,0,0,0,3376,0,226771,0
226696,-278,-454,-8286,-17,-40,41,3988,-3,-2,1,0,183,82,25,144,0,6,0,0,0,0,0,0,-32331,0,0,0,3377,0,226771,0
226706,-296,-458,-8276,-14,-38,39,3988,3,1,0,0,188,71,25,144,0,6,0,0,0,0,0,0,-32331,0,0,0,3376,0,226771,0
226716,-286,-494,-8314,-17,-38,37,3987,-5,0,-2,0,188,75,25,144,0,6,0,0,0,0,0,0,-32330,0,0,0,3377,0,226771,0
226726,-290,-462,-8290,-14,-41,42,3988,5,6,1,0,188,68,25,144,0,6,0,0,0,0,0,0,-32331,0,0,0,3376,0,226808,0
226736,-280,-464,-8254,-18,-48,42,3988,4,2,0,0,189,66,25,144,0,6,0,0,0,0,0,0,-32330,0,0,0,3377,0,226808,0
226746,-292,-472,-8298,-14,-39,39,3988,3,0,0,0,194,66,25,144,0,6,0,0,0,0,0,0,-32331,0,0,0,3376,0,226808,0
226756,-274,-480,-8284,-12,-43,40,3987,3,-3,0,0,193,30,25,144,0,6,0,0,0,0,0,0,-32330,0,0,0,3376,0,226808,0
226766,-268,-452,-8300,-18,-40,40,3988,12,-1,0,0,188,55,25,144,0,6,0,0,0,0,0,0,-32331,0,0,0,3376,0,226808,0
226776,-278,-464,-8266,-20,-40,42,3989,0,-2,2,0,183,66,25,144,0,6,0,0,0,0,0,0,-32330,0,0,0,3376,0,226808,0
226786,-262,-468,-8298,-13,-41,44,3986,-7,-5,1,0,183,93,25,144,0,6,0,0,0,0,0,0,-32331,0,0,0,3376,0,226808,0
226796,-284,-474,-8300,-19,-37,45,3987,-3,-1,-1,0,184,94,25,144,0,6,0,0,0,0,0,0,-32331,0,0,0,3376,0,226808,0
226806,-284,-468,-8302,-12,-39,42,3987,-6,0,1,0,185,84,25,144,0,6,0,0,0,0,0,0,-32330,0,0,0,3376,0,226816,0
226816,-300,-448,-8284,-12,-39,42,3986,2,0,-3,0,185,54,25,144,0,6,0,0,0,0,0,0,-32330,0,0,0,3376,0,226816,0
226826,-278,-486,-8296,-15,-39,42,3986,-6,4,0,0,184,45,25,144,0,6,0,0,0,0,0,0,-32330,0,0,0,3377,0,226816,0
226836,-296,-446,-8276,-14,-44,39,3987,0,6,-1,0,186,54,25,144,0,6,0,0,0,0,0,0,-32330,0,0,0,3376,0,226816,0
226846,-292,-470,-8264,-19,-39,39,3989,-2,3,-1,0,190,61,25,144,0,6,0,0,0,0,0,0,-32331,0,0,0,3377,0,226816,0
226856,-268,-458,-8300,-15,-44,44,3986,-10,2,1,0,190,58,25,144,0,6,0,0,0,0,0,0,-32330,0,0,0,3377,0,226816,0
226866,-280,-476,-8312,-20,-41,43,3988,-3,-3,-1,0,184,30,25,144,0,6,0,0,0,0,0,0,-32330,0,0,0,3376,0,226816,0
226876,-280,-468,-8296,-13,-42,40,3987,7,-3,1,0,182,50,25,144,0,6,0,0,0,0,0,0,-32330,0,0,0,3376,0,226816,0
226886,-282,-452,-8302,-13,-42,41,3989,0,-4,0,0,187,59,25,144,0,6,0,0,0,0,0,0,-32330,0,0,0,3376,0,226865,0
226896,-290,-470,-8282,-14,-40,39,3986,2,3,1,0,190,66,25,144,0,6,0,0,0,0,0,0,-32331,0,0,0,3377,0,226865,0
226906,-294,-446,-8286,-16,-42,40,3988,-4,-5,2,0,193,60,25,144,0,6,0,0,0,0,0,0,-32331,0,0,0,3376,0,226865,0
226916,-292,-476,-8310,-16,-36,37,3988,4,-2,-3,0,189,54,25,144,0,6,0,0,0,0,0,0,-32330,0,0,0,3376,0,226890,0
226926,-268,-464,-8314,-14,-36,39,3987,-2,-2,0,0,191,71,25,144,0,6,0,0,0,0,0,0,-32331,0,0,0,3376,0,226890,0
226936,-308,-454,-8294,-12,-42,39,3987,-1,-6,0,0,188,70,25,144,0,6,0,0,0,0,0,0,-32330,0,0,0,3377,0,226941,0
226946,-272,-458,-8264,-16,-38,38,3987,-1,-3,3,0,184,52,25,144,0,6,0,0,0,0,0,0,-32330,0,0,0,3377,0,226992,0
226956,-274,-452,-8278,-11,-38,39,3987,0,-2,0,0,182,44,25,144,0,6,0,0,0,0,0,0,-32331,0,0,0,3376,0,226992,0
226966,-262,-476,-8288,-12,-44,41,3987,-5,6,-2,0,185,54,25,144,0,6,0,0,0,0,0,0,-32331,0,0,0,3377,0,227017,0
226976,-270,-454,-8294,-15,-41,36,3988,5,5,-1,0,184,67,25,144,0,6,0,0,0,0,0,0,-32331,0,0,0,3377,0,227107,0
226986,-294,-482,-8304,-12,-45,37,3987,-7,2,3,0,187,73,25,144,0,6,0,0,0,0,0,0,-32331,0,0,0,3377,0,227107,0
226996,-282,-462,-8278,-15,-36,39,3988,1,-3,-1,0,184,71,25,144,0,6,0,0,0,0,0,0,-32331,0,0,0,3377,0,227107,0
227006,-272,-462,-8298,-13,-37,38,3987,0,1,1,0,188,58,25,144,0,6,0,0,0,0,0,0,-32331,0,0,0,3376,0,227107,0
227016,-304,-476,-8286,-14,-37,42,3988,1,1,0,0,184,54,25,144,0,6,0,0,0,0,0,0,-32331,0,0,0,3376,0,227107,0
227026,-270,-462,-8306,-20,-36,42,3988,0,3,0,0,183,53,25,144,0,6,0,0,0,0,0,0,-32331,0,0,0,3376,0,227107,0
227036,-288,-444,-8288,-16,-44,38,3988,5,-1,3,0,186,78,25,144,0,6,0,0,0,0,0,0,-32330,0,0,0,3376,0,227107,0
227046,-278,-438,-8270,-18,-41,39,3988,5,-4,0,0,191,76,25,144,0,6,0,0,0,0,0,0,-32331,0,0,0,3377,0,227182,0
227056,-294,-464,-8280,-15,-46,41,3987,-2,0,3,0,189,50,25,144,0,6,0,0,0,0,0,0,-32332,0,0,0,3377,0,227182,0
227066,-264,-476,-8276,-14,-38,37,3987,0,0,-2,0,187,55,25,144,0,6,0,0,0,0,0,0,-32331,0,0,0,3377,0,227182,0
227076,-286,-442,-8276,-16,-44,42,3988,5,4,-1,0,188,52,25,144,0,6,0,0,0,0,0,0,-32330,0,0,0,3376,0,227182,0
227086,-282,-476,-8298,-19,-41,41,3988,2,-3,-3,0,190,71,25,144,0,6,0,0,0,0,0,0,-32330,0,0,0,3377,0,227182,0
227096,-298,-454,-8272,-17,-43,39,3986,-6,0,0,0,191,50,25,144,0,6,0,0,0,0,0,0,-32331,0,0,0,3377,0,227182,0
227106,-272,-464,-8304,-19,-44,39,3987,-5,-2,-1,0,187,64,25,144,0,6,0,0,0,0,0,0,-32331,0,0,0,3377,0,227182,0
227116,-282,-470,-8306,-17,-39,41,3987,-1,0,-5,0,188,57,25,144,0,6,0,0,0,0,0,0,-32331,0,0,0,3376,0,227182,0
227126,-308,-444,-8290,-14,-41,35,3988,5,0,0,0,183,64,25,144,0,6,0,0,0,0,0,0,-32331,0,0,0,3377,0,227230,0
227136,-272,-466,-8278,-15,-42,34,3988,9,2,3,0,184,67,25,144,0,6,0,0,0,0,0,0,-32330,0,0,0,3376,0,227230,0
227146,-276,-468,-8296,-18,-39,39,3987,-5,-3,3,0,184,67,25,144,0,6,0,0,0,0,0,0,-32331,0,0,0,3377,0,227230,0
227156,-256,-470,-8320,-17,-41,39,3988,4,5,-3,0,188,65,25,144,0,6,0,0,0,0,0,0,-32331,0,0,0,3376,0,227230,0
227166,-276,-470,-8278,-18,-43,37,3987,-5,2,-3,0,184,54,25,144,0,6,0,0,0,0,0,0,-32331,0,0,0,3376,0,227230,0
227176,-294,-486,-8310,-15,-35,38,3988,0,5,1,0,185,56,25,144,0,6,0,0,0,0,0,0,-32331,0,0,0,3376,0,227230,0
227186,-268,-450,-8298,-14,-41,38,3986,-4,-3,5,0,186,69,25,144,0,6,0,0,0,0,0,0,-32331,0,0,0,3376,0,227230,0
227196,-278,-478,-8308,-15,-39,36,3988,-6,2,-3,0,188,63,25,144,0,6,0,0,0,0,0,0,-32331,0,0,0,3375,0,227230,0
227206,-304,-480,-8296,-16,-41,42,3989,9,-1,2,0,186,52,25,144,0,6,0,0,0,0,0,0,-32331,0,0,0,3376,0,227266,0
227216,-298,-472,-8306,-14,-37,39,3987,-7,3,0,0,186,60,25,144,0,6,0,0,0,0,0,0,-32330,0,0,0,3376,0,227266,0
227226,-304,-472,-8296,-14,-38,36,3988,7,0,2,0,191,66,25,144,0,6,0,0,0,0,0,0,-32331,0,0,0,3377,0,227266,0
227236,-280,-484,-8300,-17,-41,40,3988,5,0,0,0,188,62,25,144,0,6,0,0,0,0,0,0,-32330,0,0,0,3376,0,227266,0
227246,-288,-472,-8260,-14,-39,43,3988,-2,2,-3,0,188,40,25,144,0,6,0,0,0,0,0,0,-32330,0,0,0,3376,0,227266,0
227256,-264,-432,-8294,-17,-42,38,3986,-7,-8,-1,0,186,36,25,144,0,6,0,0,0,0,0,0,-32330,0,0,0,3376,0,227266,0
227266,-276,-462,-8274,-15,-40,41,3987,2,3,-3,0,188,37,25,144,0,6,0,0,0,0,0,0,-32330,0,0,0,3376,0,227266,0
227276,-316,-476,-8278,-14,-46,39,3986,1,-1,0,0,187,65,25,144,0,6,0,0,0,0,0,0,-32330,0,0,0,3377,0,227341,0
227286,-272,-478,-8282,-16,-43,39,3988,10,2,-2,0,188,77,25,144,0,6,0,0,0,0,0,0,-32330,0,0,0,3377,0,227341,0
227296,-280,-466,-8296,-18,-41,42,3987,-1,3,0,0,186,77,25,144,0,6,0,0,0,0,0,0,-32330,0,0,0,3376,0,227341,0
227306,-294,-434,-8296,-18,-37,40,3988,4,-2,1,0,188,67,25,144,0,6,0,0,0,0,0,0,-32330,0,0,0,3375,0,227341,0
227316,-294,-444,-8268,-12,-40,40,3986,-4,-1,0,0,184,55,25,144,0,6,0,0,0,0,0,0,-32330,0,0,0,3377,0,227341,0
227326,-278,-434,-8312,-19,-42,44,3987,1,-2,0,0,185,64,25,144,0,6,0,0,0,0,0,0,-32330,0,0,0,3376,0,227341,0
227336,-296,-452,-8304,-17,-39,40,3987,5,-3,3,0,186,52,25,144,0,6,0,0,0,0,0,0,-32330,0,0,0,3376,0,227341,0
227346,-268,-468,-8288,-22,-41,43,3988,4,-1,0,0,191,55,25,144,0,6,0,0,0,0,0,0,-32330,0,0,0,3376,0,227366,0
227356,-284,-486,-8282,-12,-37,43,3987,-2,6,0,0,187,58,25,144,0,6,0,0,0,0,0,0,-32331,0,0,0,3376,0,227367,0
227366,-286,-470,-8296,-17,-38,41,3987,1,-5,0,0,189,84,25,144,0,6,0,0,0,0,0,0,-32332,0,0,0,3377,0,227417,0
227376,-288,-470,-8308,-17,-32,38,3988,1,0,0,0,188,86,25,144,0,6,0,0,0,0,0,0,-32330,0,0,0,3376,0,227417,0
227386,-286,-462,-8280,-13,-41,41,3987,0,-4,1,0,195,92,25,144,0,6,0,0,0,0,0,0,-32330,0,0,0,3376,0,227417,0
227396,-270,-454,-8274,-16,-36,41,3989,3,5,0,0,197,84,25,144,0,6,0,0,0,0,0,0,-32331,0,0,0,3377,0,227417,0
227406,-308,-466,-8296,-19,-40,43,3986,-7,-4,-6,0,194,80,25,144,0,6,0,0,0,0,0,0,-32329,0,0,0,3376,0,227417,0
227416,-286,-470,-8286,-12,-44,41,3986,-7,-3,-3,0,198,86,25,144,0,6,0,0,0,0,0,0,-32329,0,0,0,3378,0,227417,0
227426,-276,-464,-8296,-19,-40,41,3988,0,-1,1,0,198,74,25,144,0,6,0,0,0,0,0,0,-32330,0,0,0,3376,0,227417,0
227436,-290,-470,-8300,-12,-41,39,3988,11,3,0,0,195,72,25,144,0,6,0,0,0,0,0,0,-32331,0,0,0,3376,0,227432,0
227446,-270,-472,-8290,-15,-42,36,3987,-5,1,-2,0,193,69,25,144,0,6,0,0,0,0,0,0,-32330,0,0,0,3377,0,227432,0
227456,-278,-462,-8312,-20,-40,39,3988,1,-4,0,0,191,76,25,144,0,6,0,0,0,0,0,0,-32330,0,0,0,3376,0,227432,0
227466,-280,-480,-8272,-17,-39,39,3988,3,3,0,0,189,95,25,144,0,6,0,0,0,0,0,0,-32330,0,0,0,3376,0,227432,0
227476,-284,-444,-8272,-17,-37,36,3988,1,2,1,0,189,88,25,144,0,6,0,0,0,0,0,0,-32331,0,0,0,3376,0,227432,0
227486,-258,-476,-8264,-19,-39,41,3986,-3,-4,0,0,190,88,25,144,0,6,0,0,0,0,0,0,-32331,0,0,0,3377,0,227432,0
227496,-284,-476,-8326,-19,-40,38,3988,3,2,-2,0,188,69,25,144,0,6,0,0,0,0,0,0,-32330,0,0,0,3377,0,227437,0
227506,-296,-482,-8308,-18,-40,42,3988,2,1,0,0,189,46,25,144,0,6,0,0,0,0,0,0,-32331,0,0,0,3377,0,227437,0
227516,-276,-426,-8282,-19,-47,33,3987,-1,-1,-10,0,190,58,25,144,0,6,0,0,0,0,0,0,-32331,0,0,0,3376,0,227437,0
227526,-282,-452,-8284,-16,-41,45,3988,3,0,-3,0,189,70,25,144,0,6,0,0,0,0,0,0,-32331,0,0,0,3376,0,227437,0
227536,-300,-472,-8288,-11,-42,41,3988,1,-1,0,0,182,69,25,144,0,6,0,0,0,0,0,0,-32331,0,0,0,3377,0,227438,0
227546,-292,-452,-8288,-14,-41,43,3987,0,-1,1,0,184,46,25,144,0,6,0,0,0,0,0,0,-32331,0,0,0,3377,0,227463,0
227556,-286,-456,-8296,-12,-38,39,3987,-1,2,4,0,192,56,25,144,0,6,0,0,0,0,0,0,-32331,0,0,0,3376,0,227514,0
227566,-266,-478,-8298,-17,-41,40,3988,-4,0,0,0,200,57,25,144,0,6,0,0,0,0,0,0,-32331,0,0,0,3377,0,227538,0
227576,-288,-510,-8294,-19,-43,40,3987,-2,-5,0,0,201,92,25,144,0,6,0,0,0,0,0,0,-32331,0,0,0,3376,0,227564,0
227586,-280,-464,-8286,-15,-41,37,3986,-4,-2,2,0,199,88,25,144,0,6,0,0,0,0,0,0,-32331,0,0,0,3377,0,227590,0
227596,-282,-464,-8288,-20,-41,41,3988,0,2,0,0,200,105,25,144,0,6,0,0,0,0,0,0,-32331,0,0,0,3376,0,227590,0
227606,-300,-480,-8278,-19,-41,38,3987,-3,-2,0,0,195,92,25,144,0,6,0,0,0,0,0,0,-32331,0,0,0,3377,0,227590,0
227616,-296,-464,-8272,-15,-38,41,3987,-4,1,-2,0,193,96,25,144,0,6,0,0,0,0,0,0,-32331,0,0,0,3376,0,227640,0
227626,-288,-494,-8302,-20,-40,44,3988,1,0,2,0,194,126,25,144,0,6,0,0,0,0,0,0,-32331,0,0,0,3376,0,227721,0
227636,-298,-454,-8276,-15,-42,39,3987,-2,-2,1,0,195,114,25,144,0,6,0,0,0,0,0,0,-32331,0,0,0,3377,0,227721,0
227646,-294,-436,-8290,-18,-43,44,3987,0,2,0,0,197,130,25,144,0,6,0,0,0,0,0,0,-32330,0,0,0,3377,0,227721,0
227656,-290,-468,-8304,-17,-36,37,3986,-9,-4,0,0,189,104,25,144,0,6,0,0,0,0,0,0,-32330,0,0,0,3378,0,227721,0
227666,-264,-450,-8280,-16,-41,38,3988,1,1,0,0,187,110,25,144,0,6,0,0,0,0,0,0,-32331,0,0,0,3376,0,227721,0
227676,-298,-462,-8280,-11,-33,43,3987,3,2,0,0,188,109,25,144,0,6,0,0,0,0,0,0,-32330,0,0,0,3377,0,227721,0
227686,-264,-440,-8294,-15,-38,37,3987,-1,-2,-1,0,191,100,25,144,0,6,0,0,0,0,0,0,-32330,0,0,0,3377,0,227774,0
227696,-288,-474,-8286,-16,-36,37,3985,-4,-3,-2,0,192,106,25,144,0,6,0,0,0,0,0,0,-32330,0,0,0,3376,0,227774,0
227706,-294,-474,-8286,-15,-43,38,3989,6,1,0,0,187,95,25,144,0,6,0,0,0,0,0,0,-32331,0,0,0,3376,0,227774,0
227716,-286,-464,-8292,-15,-39,41,3986,-13,-3,-3,0,192,95,25,144,0,6,0,0,0,0,0,0,-32330,0,0,0,3376,0,227774,0
227726,-280,-470,-8306,-16,-39,39,3988,-3,-5,-1,0,191,81,25,144,0,6,0,0,0,0,0,0,-32330,0,0,0,3376,0,227774,0
227736,-300,-476,-8274,-15,-44,42,3988,6,2,2,0,197,86,25,144,0,6,0,0,0,0,0,0,-32330,0,0,0,3376,0,227774,0
227746,-292,-484,-8278,-11,-38,34,3987,-6,0,0,0,191,74,25,144,0,6,0,0,0,0,0,0,-32330,0,0,0,3376,0,227774,0
227756,-276,-464,-8308,-14,-36,41,3987,7,-1,1,0,190,61,25,144,0,6,0,0,0,0,0,0,-32330,0,0,0,3376,0,227827,0
227766,-268,-452,-8310,-15,-38,45,3988,5,-5,0,0,191,65,25,144,0,6,0,0,0,0,0,0,-32330,0,0,0,3377,0,227827,0
227776,-280,-446,-8306,-14,-46,37,3988,-3,-3,-2,0,197,88,25,144,0,6,0,0,0,0,0,0,-32330,0,0,0,3376,0,227827,0
227786,-278,-482,-8272,-13,-38,36,3988,-1,2,-1,0,197,97,25,144,0,6,0,0,0,0,0,0,-32330,0,0,0,3377,0,227827,0
227796,-268,-496,-8286,-19,-38,41,3988,2,-3,3,0,194,93,25,144,0,6,0,0,0,0,0,0,-32330,0,0,0,3377,0,227827,0
227806,-276,-438,-8292,-15,-44,42,3987,5,5,0,0,189,69,25,144,0,6,0,0,0,0,0,0,-32330,0,0,0,3378,0,227827,0
227816,-308,-446,-8276,-15,-44,38,3987,1,4,-1,0,193,66,25,144,0,6,0,0,0,0,0,0,-32330,0,0,0,3377,0,227827,0
227826,-280,-464,-8266,-15,-41,38,3988,3,-1,-3,0,198,81,25,144,0,6,0,0,0,0,0,0,-32330,0,0,0,3376,0,227827,0
227836,-284,-484,-8296,-17,-41,41,3987,-5,1,0,0,194,81,25,144,0,6,0,0,0,0,0,0,-32330,0,0,0,3376,0,227831,0
227846,-292,-456,-8294,-12,-44,43,3988,1,2,0,0,192,89,25,144,0,6,0,0,0,0,0,0,-32330,0,0,0,3376,0,227831,0
227856,-298,-440,-8290,-18,-38,44,3987,5,0,0,0,194,75,25,144,0,6,0,0,0,0,0,0,-32330,0,0,0,3376,0,227831,0
227866,-272,-464,-8286,-18,-40,41,3988,-7,2,-1,0,199,92,25,144,0,6,0,0,0,0,0,0,-32330,0,0,0,3377,0,227831,0
227876,-264,-446,-8280,-15,-37,43,3988,0,5,-2,0,199,96,25,144,0,6,0,0,0,0,0,0,-32330,0,0,0,3377,0,227831,0
227886,-280,-442,-8284,-15,-39,39,3986,-2,4,-1,0,201,58,25,144,0,6,0,0,0,0,0,0,-32330,0,0,0,3377,0,227831,0
227896,-284,-450,-8300,-13,-41,39,3988,2,-1,0,0,197,39,25,144,0,6,0,0,0,0,0,0,-32330,0,0,0,3377,0,227881,0
227906,-266,-450,-8286,-15,-40,41,3987,0,2,0,0,194,26,25,144,0,6,0,0,0,0,0,0,-32330,0,0,0,3377,0,227881,0
227916,-308,-472,-8288,-14,-40,39,3988,1,-1,0,0,190,59,25,144,0,6,0,0,0,0,0,0,-32330,0,0,0,3376,0,227881,0
227926,-274,-450,-8270,-19,-38,35,3987,-5,-3,2,0,193,71,25,144,0,6,0,0,0,0,0,0,-32329,0,0,0,3376,0,227881,0
227936,-260,-472,-8310,-16,-38,41,3988,-3,-6,0,0,192,91,25,144,0,6,0,0,0,0,0,0,-32330,0,0,0,3377,0,227881,0
227946,-288,-438,-8306,-16,-39,39,3987,-1,0,-2,0,188,75,25,144,0,6,0,0,0,0,0,0,-32330,0,0,0,3376,0,227881,0
227956,-266,-470,-8296,-20,-43,42,3988,0,1,-2,0,187,88,25,144,0,6,0,0,0,0,0,0,-32330,0,0,0,3376,0,227908,0
227966,-268,-482,-8302,-12,-38,38,3989,10,-1,0,0,188,99,25,144,0,6,0,0,0,0,0,0,-32330,0,0,0,3377,0,227961,0
227976,-268,-464,-8294,-18,-35,39,3988,-2,-1,-1,0,188,81,25,144,0,6,0,0,0,0,0,0,-32330,0,0,0,3377,0,227986,0
227986,-292,-460,-8286,-13,-38,39,3988,1,2,0,0,192,65,25,144,0,6,0,0,0,0,0,0,-32330,0,0,0,3376,0,228030,0
227996,-260,-458,-8288,-16,-42,40,3987,-9,-6,1,0,192,64,25,144,0,6,0,0,0,0,0,0,-32330,0,0,0,3377,0,228030,0
228006,-310,-464,-8276,-16,-34,37,3987,-7,3,2,0,194,76,25,144,0,6,0,0,0,0,0,0,-32329,0,0,0,3376,0,228030,0
228016,-286,-454,-8280,-16,-44,44,3987,-6,1,0,0,193,60,25,144,0,6,0,0,0,0,0,0,-32330,0,0,0,3376,0,228030,0
228026,-272,-474,-8278,-20,-40,40,3988,0,4,-1,0,191,46,25,144,0,6,0,0,0,0,0,0,-32330,0,0,0,3377,0,228031,0
228036,-262,-440,-8294,-8,-39,34,3987,-1,-3,2,0,191,45,25,144,0,6,0,0,0,0,0,0,-32330,0,0,0,3378,0,228036,0
228046,-280,-466,-8264,-17,-48,44,3987,0,1,6,0,195,76,25,144,0,6,0,0,0,0,0,0,-32330,0,0,0,3376,0,228036,0
228056,-294,-470,-8280,-14,-35,34,3987,-3,7,-3,0,197,83,25,144,0,6,0,0,0,0,0,0,-32330,0,0,0,3376,0,228036,0
228066,-298,-434,-8312,-15,-43,40,3987,-2,-5,-2,0,198,105,25,144,0,6,0,0,0,0,0,0,-32330,0,0,0,3377,0,228037,0
228076,-268,-468,-8264,-17,-38,37,3987,-1,-1,0,0,200,96,25,144,0,6,0,0,0,0,0,0,-32330,0,0,0,3376,0,228037,0
228086,-298,-460,-8284,-16,-38,40,3987,-5,6,-3,0,203,89,25,144,0,6,0,0,0,0,0,0,-32330,0,0,0,3376,0,228037,0
228096,-280,-468,-8294,-10,-40,37,3987,-2,1,1,0,200,108,25,144,0,6,0,0,0,0,0,0,-32330,0,0,0,3376,0,228037,0
228106,-284,-472,-8304,-15,-36,40,3989,5,3,-1,0,193,84,25,144,0,6,0,0,0,0,0,0,-32330,0,0,0,3376,0,228041,0
228116,-308,-460,-8292,-16,-39,39,3987,-3,0,0,0,195,87,25,144,0,6,0,0,0,0,0,0,-32330,0,0,0,3377,0,228041,0
228126,-278,-430,-8286,-17,-36,43,3988,1,0,0,0,197,68,25,144,0,6,0,0,0,0,0,0,-32330,0,0,0,3377,0,228041,0
228136,-294,-486,-8294,-17,-40,39,3987,-1,3,0,0,194,80,25,144,0,6,0,0,0,0,0,0,-32329,0,0,0,3377,0,228041,0
228146,-298,-448,-8300,-13,-42,43,3989,4,2,7,0,186,57,25,144,0,6,0,0,0,0,0,0,-32330,0,0,0,3377,0,228041,0
228156,-288,-468,-8286,-15,-39,41,3988,2,0,1,0,187,65,25,144,0,6,0,0,0,0,0,0,-32331,0,0,0,3377,0,228042,0
228166,-280,-470,-8288,-18,-40,37,3986,-4,1,-3,0,192,65,25,144,0,6,0,0,0,0,0,0,-32331,0,0,0,3376,0,228071,0
228176,-264,-454,-8292,-15,-39,40,3987,-5,0,-2,0,197,87,25,144,0,6,0,0,0,0,0,0,-32330,0,0,0,3376,0,228096,0
228186,-298,-482,-8294,-16,-42,39,3986,-2,6,1,0,199,72,25,144,0,6,0,0,0,0,0,0,-32330,0,0,0,3377,0,228151,0
228196,-304,-466,-8276,-16,-42,43,3989,3,3,2,0,192,59,25,144,0,6,0,0,0,0,0,0,-32330,0,0,0,3376,0,228175,0
228206,-288,-476,-8280,-11,-34,41,3987,0,-3,-1,0,189,18,25,144,0,6,0,0,0,0,0,0,-32331,0,0,0,3376,0,228201,0
228216,-302,-450,-8302,-15,-44,40,3988,4,3,-3,0,191,39,25,144,0,6,0,0,0,0,0,0,-32330,0,0,0,3377,0,228264,0
228226,-284,-456,-8262,-15,-40,38,3988,2,1,-1,0,198,55,25,144,0,6,0,0,0,0,0,0,-32330,0,0,0,3377,0,228264,0
228236,-292,-474,-8290,-17,-39,33,3989,1,3,1,0,196,47,25,144,0,6,0,0,0,0,0,0,-32330,0,0,0,3377,0,228264,0
228246,-284,-464,-8288,-16,-41,39,3985,-13,-6,0,0,193,32,25,144,0,6,0,0,0,0,0,0,-32331,0,0,0,3377,0,228264,0
228256,-306,-462,-8288,-17,-32,37,3986,-10,-5,-5,0,193,36,25,144,0,6,0,0,0,0,0,0,-32330,0,0,0,3377,0,228264,0
228266,-296,-482,-8296,-14,-40,42,3988,3,-1,-2,0,198,50,25,144,0,6,0,0,0,0,0,0,-32331,0,0,0,3377,0,228264,0
228276,-302,-490,-8266,-17,-40,37,3988,-3,-2,3,0,195,58,25,144,0,6,0,0,0,0,0,0,-32330,0,0,0,3376,0,228315,0
228286,-268,-478,-8270,-8,-39,36,3988,0,-4,0,0,192,61,25,144,0,6,0,0,0,0,0,0,-32330,0,0,0,3376,0,228315,0
228296,-280,-464,-8282,-16,-42,38,3986,-7,-8,0,0,187,36,25,144,0,6,0,0,0,0,0,0,-32331,0,0,0,3376,0,228315,0
228306,-304,-462,-8310,-16,-39,41,3987,4,-2,-4,0,193,62,25,144,0,6,0,0,0,0,0,0,-32330,0,0,0,3377,0,228315,0
228316,-298,-448,-8284,-16,-44,40,3986,-8,-1,-3,0,197,55,25,144,0,6,0,0,0,0,0,0,-32330,0,0,0,3377,0,228315,0
228326,-288,-468,-8262,-17,-38,43,3986,1,-3,0,0,195,44,25,144,0,6,0,0,0,0,0,0,-32331,0,0,0,3377,0,228391,0
228336,-278,-458,-8304,-12,-36,41,3988,-3,2,0,0,191,34,25,144,0,6,0,0,0,0,0,0,-32330,0,0,0,3377,0,228391,0
228346,-278,-450,-8298,-10,-44,41,3987,0,-4,-4,0,184,38,25,144,0,6,0,0,0,0,0,0,-32330,0,0,0,3377,0,228391,0
228356,-276,-466,-8296,-16,-42,36,3987,-6,2,-2,0,188,55,25,144,0,6,0,0,0,0,0,0,-32331,0,0,0,3377,0,228391,0
228366,-262,-468,-8302,-17,-39,43,3987,-3,-4,-4,0,190,55,25,144,0,6,0,0,0,0,0,0,-32332,0,0,0,3377,0,228391,0
228376,-282,-468,-8300,-15,-42,41,3987,5,0,0,0,196,50,25,144,0,6,0,0,0,0,0,0,-32330,0,0,0,3376,0,228391,0
228386,-282,-472,-8318,-12,-42,36,3988,0,1,0,0,193,48,25,144,0,6,0,0,0,0,0,0,-32330,0,0,0,3377,0,228400,0
228396,-286,-484,-8282,-21,-40,40,3988,12,0,0,0,192,61,25,144,0,6,0,0,0,0,0,0,-32330,0,0,0,3378,0,228400,0
228406,-304,-470,-8300,-16,-38,39,3986,-11,7,0,0,191,66,25,144,0,6,0,0,0,0,0,0,-32330,0,0,0,3376,0,228400,0
228416,-282,-462,-8274,-14,-44,42,3987,1,-7,0,0,192,71,25,144,0,6,0,0,0,0,0,0,-32331,0,0,0,3377,0,228400,0
228426,-302,-470,-8262,-16,-39,37,3989,4,4,0,0,194,62,25,144,0,6,0,0,0,0,0,0,-32330,0,0,0,3377,0,228400,0
228436,-280,-478,-8280,-16,-40,39,3988,4,0,0,0,194,71,25,144,0,6,0,0,0,0,0,0,-32330,0,0,0,3378,0,228407,0
228446,-296,-464,-8302,-20,-43,40,3986,-6,-1,1,0,192,68,25,144,0,6,0,0,0,0,0,0,-32330,0,0,0,3377,0,228407,0
228456,-288,-456,-8272,-12,-42,40,3987,-2,2,0,0,189,44,25,144,0,6,0,0,0,0,0,0,-32330,0,0,0,3377,0,228407,0
228466,-296,-452,-8288,-17,-36,39,3988,-1,1,-1,0,194,34,25,144,0,6,0,0,0,0,0,0,-32331,0,0,0,3377,0,228407,0
228476,-280,-466,-8286,-14,-39,44,3988,-4,-2,0,0,194,18,25,144,0,6,0,0,0,0,0,0,-32330,0,0,0,3376,0,228407,0
228486,-300,-460,-8300,-18,-37,43,3988,3,0,0,0,194,27,25,144,0,6,0,0,0,0,0,0,-32330,0,0,0,3376,0,228407,0
228496,-274,-476,-8300,-17,-46,35,3988,1,1,0,0,187,14,25,144,0,6,0,0,0,0,0,0,-32329,0,0,0,3377,0,228407,0
228506,-300,-470,-8296,-17,-38,42,3987,1,-4,-1,0,183,25,25,144,0,6,0,0,0,0,0,0,-32332,0,0,0,3376,0,228413,0
228516,-292,-462,-8280,-14,-39,44,3988,4,2,0,0,185,26,25,144,0,6,0,0,0,0,0,0,-32331,0,0,0,3376,0,228413,0
228526,-278,-440,-8280,-13,-36,41,3986,-6,-1,0,0,192,47,25,144,0,6,0,0,0,0,0,0,-32330,0,0,0,3376,0,228416,0
228536,-310,-468,-8312,-14,-38,38,3987,0,-2,-2,0,199,89,25,144,0,6,0,0,0,0,0,0,-32330,0,0,0,3376,0,228418,0
228546,-312,-454,-8270,-16,-39,43,3987,1,3,0,0,199,94,25,144,0,6,0,0,0,0,0,0,-32330,0,0,0,3376,0,228429,0
228556,-268,-460,-8288,-14,-41,41,3988,7,2,-7,0,206,106,25,144,0,6,0,0,0,0,0,0,-32330,0,0,0,3376,0,228442,0
228566,-272,-462,-8280,-12,-42,36,3988,2,1,-3,0,211,78,25,144,0,6,0,0,0,0,0,0,-32330,0,0,0,3376,0,228448,0
228576,-284,-450,-8282,-19,-42,43,3987,3,-2,-1,0,205,78,25,144,0,6,0,0,0,0,0,0,-32330,0,0,0,3377,0,228461,0
228586,-290,-454,-8264,-14,-43,41,3988,3,1,-5,0,191,58,25,144,0,6,0,0,0,0,0,0,-32329,0,0,0,3376,0,228470,0
228596,-280,-478,-8280,-16,-41,36,3988,-2,2,0,0,188,54,25,144,0,6,0,0,0,0,0,0,-32331,0,0,0,3377,0,228480,0
228606,-288,-468,-8306,-12,-39,41,3988,4,-2,-3,0,188,78,25,144,0,6,0,0,0,0,0,0,-32331,0,0,0,3377,0,228491,0
228616,-288,-466,-8304,-18,-41,39,3988,5,1,-3,0,194,64,25,144,0,6,0,0,0,0,0,0,-32329,0,0,0,3377,0,228501,0
228626,-308,-462,-8276,-16,-41,41,3987,2,-4,0,0,190,33,25,144,0,6,0,0,0,0,0,0,-32329,0,0,0,3376,0,228508,0
228636,-312,-448,-8302,-15,-35,40,3986,-5,-1,0,0,185,22,25,144,0,6,0,0,0,0,0,0,-32330,0,0,0,3376,0,228519,0
228646,-266,-474,-8324,-14,-36,42,3988,1,2,3,0,186,46,25,144,0,6,0,0,0,0,0,0,-32331,0,0,0,3376,0,228530,0
228656,-264,-460,-8282,-14,-39,44,3988,0,0,-2,0,189,70,25,144,0,6,0,0,0,0,0,0,-32331,0,0,0,3376,0,228542,0
228666,-270,-468,-8304,-15,-41,43,3989,1,5,-9,0,196,60,25,144,0,6,0,0,0,0,0,0,-32331,0,0,0,3376,0,228553,0
228676,-296,-456,-8290,-13,-36,42,3987,2,-2,1,0,192,21,25,144,0,6,0,0,0,0,0,0,-32329,0,0,0,3376,0,228558,0
228686,-296,-458,-8282,-18,-42,39,3987,-3,2,0,0,197,48,25,144,0,6,0,0,0,0,0,0,-32330,0,0,0,3376,0,228569,0
228696,-268,-466,-8266,-19,-38,43,3987,-4,-6,4,0,198,85,25,144,0,6,0,0,0,0,0,0,-32332,0,0,0,3377,0,228586,0
228706,-258,-454,-8314,-20,-41,38,3987,-9,-2,1,0,201,73,25,144,0,6,0,0,0,0,0,0,-32331,0,0,0,3377,0,228589,0
228716,-308,-486,-8326,-17,-42,39,3988,8,3,0,0,196,37,25,144,0,6,0,0,0,0,0,0,-32331,0,0,0,3378,0,228632,0
228726,-294,-442,-8280,-16,-43,43,3988,2,-4,3,0,197,-5,25,144,0,6,0,0,0,0,0,0,-32330,0,0,0,3377,0,228636,0
228736,-290,-452,-8272,-15,-39,39,3987,1,-1,0,0,192,20,25,144,0,6,0,0,0,0,0,0,-32330,0,0,0,3377,0,228638,0
228746,-278,-484,-8280,-17,-40,39,3988,1,-1,0,0,195,64,25,144,0,6,0,0,0,0,0,0,-32330,0,0,0,3377,0,228641,0
228756,-304,-474,-8286,-21,-43,41,3986,0,4,-3,0,190,70,25,144,0,6,0,0,0,0,0,0,-32330,0,0,0,3377,0,228643,0
228766,-270,-460,-8294,-17,-38,40,3987,-1,10,-9,0,192,67,25,144,0,6,0,0,0,0,0,0,-32330,0,0,0,3377,0,228662,0
228776,-304,-442,-8272,-14,-42,43,3988,3,-5,1,0,194,87,25,144,0,6,0,0,0,0,0,0,-32331,0,0,0,3377,0,228667,0
228786,-266,-468,-8290,-18,-39,40,3988,-1,-1,-4,0,193,89,25,144,0,6,0,0,0,0,0,0,-32331,0,0,0,3376,0,228669,0
228796,-302,-456,-8290,-19,-38,39,3987,-5,5,0,0,190,82,25,144,0,6,0,0,0,0,0,0,-32332,0,0,0,3377,0,228685,0
228806,-298,-470,-8322,-18,-40,39,3987,-2,1,-4,0,185,63,25,144,0,6,0,0,0,0,0,0,-32330,0,0,0,3376,0,228690,0
228816,-284,-502,-8276,-15,-41,44,3988,0,-4,1,0,186,15,25,144,0,6,0,0,0,0,0,0,-32332,0,0,0,3377,0,228701,0
228826,-290,-456,-8304,-18,-43,41,3989,0,-3,0,0,184,-7,25,144,0,6,0,0,0,0,0,0,-32330,0,0,0,3376,0,228735,0
228836,-286,-462,-8290,-17,-41,40,3988,-7,1,-1,0,185,5,25,144,0,6,0,0,0,0,0,0,-32330,0,0,0,3377,0,228759,0
228846,-278,-458,-8304,-16,-41,43,3988,-4,4,0,0,187,10,25,144,0,6,0,0,0,0,0,0,-32330,0,0,0,3377,0,228764,0
228856,-292,-482,-8302,-17,-42,40,3987,-10,-6,3,0,189,42,25,144,0,6,0,0,0,0,0,0,-32330,0,0,0,3376,0,228772,0
228866,-276,-462,-8262,-14,-32,40,3989,5,5,4,0,194,22,25,144,0,6,0,0,0,0,0,0,-32330,0,0,0,3376,0,228787,0
228876,-286,-462,-8290,-15,-41,39,3987,0,2,2,0,195,28,25,144,0,6,0,0,0,0,0,0,-32330,0,0,0,3377,0,228789,0
228886,-258,-470,-8282,-17,-41,43,3988,0,1,-1,0,195,31,25,144,0,6,0,0,0,0,0,0,-32332,0,0,0,3377,0,228792,0
228896,-260,-440,-8276,-16,-39,35,3987,-1,-3,0,0,189,41,25,144,0,6,0,0,0,0,0,0,-32331,0,0,0,3376,0,228799,0
228906,-296,-520,-8302,-20,-37,38,3988,5,8,-2,0,189,47,25,144,0,6,0,0,0,0,0,0,-32330,0,0,0,3376,0,228801,0
228916,-272,-458,-8302,-14,-44,41,3988,0,2,1,0,186,41,25,144,0,6,0,0,0,0,0,0,-32331,0,0,0,3377,0,228812,0
228926,-268,-480,-8298,-13,-41,39,3988,3,-4,2,0,184,33,25,144,0,6,0,0,0,0,0,0,-32331,0,0,0,3376,0,228820,0
228936,-300,-472,-8268,-14,-37,39,3988,1,-8,0,0,181,46,25,144,0,6,0,0,0,0,0,0,-32331,0,0,0,3377,0,228824,0
228946,-274,-468,-8308,-16,-45,38,3987,2,3,1,0,183,68,25,144,0,6,0,0,0,0,0,0,-32331,0,0,0,3376,0,228829,0
228956,-286,-468,-8294,-14,-40,42,3988,3,2,-2,0,190,74,25,144,0,6,0,0,0,0,0,0,-32331,0,0,0,3376,0,228838,0
228966,-294,-490,-8282,-16,-33,41,3986,-1,-3,-1,0,194,61,25,144,0,6,0,0,0,0,0,0,-32331,0,0,0,3376,0,228861,0
228976,-296,-456,-8296,-15,-44,39,3989,1,-3,2,0,192,65,25,144,0,6,0,0,0,0,0,0,-32331,0,0,0,3377,0,228864,0
228986,-302,-470,-8302,-13,-40,37,3988,-4,-1,1,0,185,67,25,144,0,6,0,0,0,0,0,0,-32331,0,0,0,3377,0,228871,0
228996,-290,-474,-8296,-17,-39,41,3987,0,2,1,0,184,83,25,144,0,6,0,0,0,0,0,0,-32330,0,0,0,3376,0,228878,0
229006,-294,-446,-8294,-15,-44,40,3987,0,2,1,0,191,61,25,144,0,6,0,0,0,0,0,0,-32330,0,0,0,3376,0,228897,0
229016,-302,-460,-8296,-16,-39,37,3988,0,0,0,0,194,65,25,144,0,6,0,0,0,0,0,0,-32330,0,0,0,3376,0,228899,0
229026,-288,-462,-8296,-14,-37,41,3988,-1,-1,0,0,188,70,25,144,0,6,0,0,0,0,0,0,-32330,0,0,0,3377,0,228909,0
229036,-280,-454,-8296,-16,-39,41,3987,-3,5,0,0,187,68,25,144,0,6,0,0,0,0,0,0,-32330,0,0,0,3376,0,228924,0
229046,-292,-460,-8290,-17,-36,42,3987,0,5,0,0,190,90,25,144,0,6,0,0,0,0,0,0,-32330,0,0,0,3376,0,228930,0
229056,-270,-450,-8280,-18,-44,42,3988,0,1,-4,0,195,119,25,144,0,6,0,0,0,0,0,0,-32331,0,0,0,3376,0,228939,0
229066,-282,-488,-8270,-13,-36,40,3988,1,1,0,0,195,109,25,144,0,6,0,0,0,0,0,0,-32331,0,0,0,3377,0,228953,0
229076,-290,-458,-8298,-13,-43,36,3987,-3,-2,2,0,190,81,25,144,0,6,0,0,0,0,0,0,-32330,0,0,0,3377,0,228958,0
229086,-266,-462,-8270,-16,-39,41,3989,2,6,0,0,185,66,25,144,0,6,0,0,0,0,0,0,-32330,0,0,0,3377,0,228995,0
229096,-286,-464,-8290,-14,-46,43,3988,-1,3,0,0,185,65,25,144,0,6,0,0,0,0,0,0,-32331,0,0,0,3375,0,228998,0
229106,-306,-486,-8304,-15,-40,39,3986,-4,3,0,0,188,84,25,144,0,6,0,0,0,0,0,0,-32331,0,0,0,3377,0,229003,0
229116,-276,-464,-8294,-18,-37,40,3987,4,0,3,0,193,104,25,144,0,6,0,0,0,0,0,0,-32331,0,0,0,3376,0,229012,0
229126,-286,-458,-8286,-22,-48,42,3988,1,1,3,0,187,70,25,144,0,6,0,0,0,0,0,0,-32330,0,0,0,3377,0,229015,0
229136,-290,-456,-8278,-15,-37,40,3987,0,-2,-2,0,185,85,25,144,0,6,0,0,0,0,0,0,-32331,0,0,0,3376,0,229021,0
229146,-292,-460,-8296,-18,-39,42,3988,0,3,1,0,183,95,25,144,0,6,0,0,0,0,0,0,-32330,0,0,0,3376,0,229029,0
229156,-292,-474,-8286,-17,-38,39,3988,5,-7,-2,0,185,95,25,144,0,6,0,0,0,0,0,0,-32330,0,0,0,3377,0,229054,0
229166,-298,-462,-8280,-16,-36,39,3987,-2,1,-1,0,187,104,25,144,0,6,0,0,0,0,0,0,-32330,0,0,0,3376,0,229057,0
229176,-296,-478,-8274,-18,-40,40,3987,0,0,3,0,188,75,25,144,0,6,0,0,0,0,0,0,-32330,0,0,0,3377,0,229059,0
229186,-284,-488,-8292,-19,-38,40,3987,0,-1,-1,0,189,83,25,144,0,6,0,0,0,0,0,0,-32329,0,0,0,3376,0,229070,0
229196,-276,-460,-8286,-15,-40,40,3988,0,-3,7,0,188,48,25,144,0,6,0,0,0,0,0,0,-32329,0,0,0,3376,0,229084,0
229206,-270,-466,-8282,-20,-41,46,3988,5,0,1,0,186,27,25,144,0,6,0,0,0,0,0,0,-32329,0,0,0,3377,0,229088,0
229216,-270,-468,-8292,-15,-36,37,3988,3,-3,-1,0,185,32,25,144,0,6,0,0,0,0,0,0,-32330,0,0,0,3376,0,229114,0
229226,-282,-458,-8288,-17,-41,42,3988,5,3,-2,0,188,57,25,144,0,6,0,0,0,0,0,0,-32331,0,0,0,3376,0,229117,0
229236,-306,-470,-8266,-15,-43,36,3989,7,3,1,0,185,61,25,144,0,6,0,0,0,0,0,0,-32330,0,0,0,3377,0,229124,0
229246,-284,-470,-8316,-17,-34,41,3987,-5,-1,4,0,188,79,25,144,0,6,0,0,0,0,0,0,-32331,0,0,0,3377,0,229130,0
229256,-282,-472,-8302,-18,-45,39,3987,1,-3,-1,0,187,67,25,144,0,6,0,0,0,0,0,0,-32331,0,0,0,3377,0,229138,0
229266,-280,-474,-8292,-16,-36,42,3988,9,3,-1,0,188,68,25,144,0,6,0,0,0,0,0,0,-32330,0,0,0,3376,0,229152,0
229276,-268,-446,-8300,-20,-41,44,3988,5,2,1,0,188,93,25,144,0,6,0,0,0,0,0,0,-32330,0,0,0,3377,0,229179,0
229286,-270,-460,-8302,-15,-38,42,3987,3,1,-1,0,185,98,25,144,0,6,0,0,0,0,0,0,-32330,0,0,0,3376,0,229181,0
229296,-272,-488,-8288,-12,-41,38,3987,-1,-2,1,0,181,94,25,144,0,6,0,0,0,0,0,0,-32330,0,0,0,3376,0,229184,0
229306,-288,-508,-8286,-20,-39,40,3988,1,2,3,0,183,60,25,144,0,6,0,0,0,0,0,0,-32330,0,0,0,3376,0,229192,0
229316,-302,-474,-8280,-15,-40,39,3988,1,-1,-3,0,188,60,25,144,0,6,0,0,0,0,0,0,-32332,0,0,0,3376,0,229199,0
229326,-292,-468,-8304,-16,-39,43,3989,3,8,0,0,185,63,25,144,0,6,0,0,0,0,0,0,-32330,0,0,0,3377,0,229210,0
229336,-298,-446,-8282,-17,-42,40,3987,0,0,0,0,187,101,25,144,0,6,0,0,0,0,0,0,-32332,0,0,0,3377,0,229221,0
229346,-276,-466,-8298,-14,-39,39,3987,-5,3,-1,0,187,94,25,144,0,6,0,0,0,0,0,0,-32329,0,0,0,3376,0,229228,0
229356,-292,-458,-8278,-18,-43,41,3987,-3,-2,3,0,185,63,25,144,0,6,0,0,0,0,0,0,-32330,0,0,0,3377,0,229238,0
229366,-292,-464,-8292,-17,-40,37,3987,1,2,-3,0,190,55,25,144,0,6,0,0,0,0,0,0,-32331,0,0,0,3377,0,229254,0
229376,-260,-456,-8328,-13,-40,39,3988,-1,2,2,0,191,76,25,144,0,6,0,0,0,0,0,0,-32330,0,0,0,3377,0,229259,0
229386,-268,-442,-8298,-14,-42,42,3989,6,6,-1,0,194,131,25,144,0,6,0,0,0,0,0,0,-32331,0,0,0,3376,0,229268,0
229396,-292,-468,-8276,-17,-37,41,3988,3,2,-2,0,190,134,25,144,0,6,0,0,0,0,0,0,-32330,0,0,0,3376,0,229283,0
229406,-270,-462,-8288,-16,-42,40,3987,-9,2,-2,0,193,126,25,144,0,6,0,0,0,0,0,0,-32330,0,0,0,3377,0,229288,0
229416,-276,-472,-8300,-18,-39,41,3987,-3,-3,-3,0,190,120,25,144,0,6,0,0,0,0,0,0,-32330,0,0,0,3378,0,229300,0
229426,-274,-438,-8302,-18,-39,38,3987,-5,-5,0,0,183,108,25,144,0,6,0,0,0,0,0,0,-32332,0,0,0,3377,0,229322,0
229436,-274,-450,-8284,-18,-43,39,3988,0,3,0,0,179,90,25,144,0,6,0,0,0,0,0,0,-32330,0,0,0,3377,0,229324,0
229446,-284,-472,-8306,-19,-35,46,3988,-1,1,-2,0,185,101,25,144,0,6,0,0,0,0,0,0,-32330,0,0,0,3377,0,229332,0
229456,-308,-466,-8300,-14,-46,38,3987,0,-1,0,0,189,72,25,144,0,6,0,0,0,0,0,0,-32332,0,0,0,3376,0,229340,0
229466,-286,-478,-8292,-18,-39,42,3988,-4,0,-5,0,185,48,25,144,0,6,0,0,0,0,0,0,-32330,0,0,0,3377,0,229352,0
229476,-288,-464,-8284,-18,-38,41,3986,-5,-5,1,0,182,60,25,144,0,6,0,0,0,0,0,0,-32332,0,0,0,3377,0,229397,0
229486,-266,-468,-8300,-19,-39,41,3987,0,3,-1,0,185,53,25,144,0,6,0,0,0,0,0,0,-32331,0,0,0,3376,0,229400,0
229496,-290,-510,-8290,-17,-39,37,3988,3,3,0,0,187,79,25,144,0,6,0,0,0,0,0,0,-32330,0,0,0,3378,0,229402,0
229506,-270,-454,-8284,-18,-42,34,3988,-3,1,1,0,188,75,25,144,0,6,0,0,0,0,0,0,-32330,0,0,0,3377,0,229405,0
229516,-282,-462,-8308,-14,-38,37,3987,-10,-2,2,0,188,57,25,144,0,6,0,0,0,0,0,0,-32330,0,0,0,3377,0,229407,0
229526,-270,-460,-8308,-18,-45,40,3987,-1,-4,0,0,190,63,25,144,0,6,0,0,0,0,0,0,-32331,0,0,0,3376,0,229412,0
229536,-296,-458,-8280,-17,-44,37,3987,-8,-1,0,0,188,55,25,144,0,6,0,0,0,0,0,0,-32331,0,0,0,3376,0,229418,0
229546,-308,-462,-8298,-17,-32,44,3987,6,-2,-2,0,186,56,25,144,0,6,0,0,0,0,0,0,-32330,0,0,0,3377,0,229434,0
229556,-296,-474,-8286,-20,-41,44,3988,2,3,-1,0,191,68,25,144,0,6,0,0,0,0,0,0,-32331,0,0,0,3377,0,229439,0
229566,-290,-466,-8314,-18,-40,43,3987,-4,3,4,0,190,73,25,144,0,6,0,0,0,0,0,0,-32331,0,0,0,3376,0,229449,0
229576,-276,-446,-8310,-18,-41,38,3987,-2,-2,0,0,185,64,25,144,0,6,0,0,0,0,0,0,-32331,0,0,0,3377,0,229460,0
229586,-290,-472,-8292,-15,-42,41,3987,4,-3,1,0,185,78,25,144,0,6,0,0,0,0,0,0,-32331,0,0,0,3377,0,229470,0
229596,-256,-454,-8276,-15,-37,44,3987,-1,4,0,0,181,69,25,144,0,6,0,0,0,0,0,0,-32331,0,0,0,3377,0,229486,0
229606,-310,-476,-8298,-14,-43,40,3987,1,-2,2,0,185,75,25,144,0,6,0,0,0,0,0,0,-32330,0,0,0,3376,0,229491,0
229616,-278,-516,-8296,-18,-37,40,3987,-4,0,-1,0,183,42,25,144,0,6,0,0,0,0,0,0,-32330,0,0,0,3377,0,229506,0
229626,-274,-456,-8286,-19,-37,43,3987,-1,-1,-2,0,184,56,25,144,0,6,0,0,0,0,0,0,-32331,0,0,0,3377,0,229510,0
229636,-282,-462,-8298,-19,-37,38,3987,1,-2,2,0,185,74,25,144,0,6,0,0,0,0,0,0,-32331,0,0,0,3378,0,229525,0
229646,-292,-488,-8304,-15,-38,38,3988,0,0,-1,0,187,73,25,144,0,6,0,0,0,0,0,0,-32330,0,0,0,3377,0,229531,0
229656,-298,-498,-8286,-16,-45,40,3988,0,1,6,0,183,52,25,144,0,6,0,0,0,0,0,0,-32330,0,0,0,3377,0,229542,0
229666,-298,-494,-8296,-23,-39,41,3988,5,-2,-4,0,187,56,25,144,0,6,0,0,0,0,0,0,-32330,0,0,0,3377,0,229550,0
229676,-308,-480,-8278,-16,-42,39,3987,-2,1,0,0,186,45,25,144,0,6,0,0,0,0,0,0,-32330,0,0,0,3378,0,229559,0
229686,-280,-452,-8306,-18,-42,36,3988,3,1,-2,0,191,73,25,144,0,6,0,0,0,0,0,0,-32330,0,0,0,3377,0,229571,0
229696,-294,-470,-8290,-17,-44,43,3987,-2,2,1,0,187,79,25,144,0,6,0,0,0,0,0,0,-32330,0,0,0,3377,0,229582,0
229706,-300,-452,-8280,-16,-41,41,3987,-6,-2,2,0,188,60,25,144,0,6,0,0,0,0,0,0,-32330,0,0,0,3377,0,229589,0
229716,-298,-450,-8298,-16,-39,41,3987,-6,-2,2,0,188,38,25,144,0,6,0,0,0,0,0,0,-32330,0,0,0,3376,0,229604,0
229726,-296,-468,-8292,-17,-44,39,3987,2,-2,1,0,186,51,25,144,0,6,0,0,0,0,0,0,-32331,0,0,0,3377,0,229609,0
229736,-286,-452,-8300,-12,-41,40,3986,-8,2,0,0,188,92,25,144,0,6,0,0,0,0,0,0,-32330,0,0,0,3377,0,229619,0
229746,-298,-454,-8284,-13,-39,43,3988,-1,-3,0,0,191,120,25,144,0,6,0,0,0,0,0,0,-32330,0,0,0,3377,0,229628,0
229756,-288,-444,-8300,-16,-40,35,3987,-7,0,2,0,197,157,25,144,0,6,0,0,0,0,0,0,-32331,0,0,0,3378,0,229639,0
229766,-280,-456,-8300,-22,-40,40,3988,1,5,0,0,193,157,25,144,0,6,0,0,0,0,0,0,-32330,0,0,0,3377,0,229649,0
229776,-274,-464,-8310,-17,-46,45,3988,5,-2,-1,0,190,130,25,144,0,6,0,0,0,0,0,0,-32331,0,0,0,3377,0,229658,0
229786,-296,-472,-8304,-19,-43,40,3989,2,2,0,0,190,101,25,144,0,6,0,0,0,0,0,0,-32330,0,0,0,3377,0,229670,0
229796,-260,-446,-8296,-20,-36,36,3989,2,-1,1,0,191,97,25,144,0,6,0,0,0,0,0,0,-32330,0,0,0,3377,0,229678,0
229806,-292,-472,-8272,-11,-45,40,3988,1,2,2,0,191,68,25,144,0,6,0,0,0,0,0,0,-32331,0,0,0,3376,0,229689,0
229816,-308,-498,-8272,-15,-37,35,3987,-7,0,1,0,195,105,25,144,0,6,0,0,0,0,0,0,-32330,0,0,0,3377,0,229706,0
229826,-272,-484,-8266,-18,-44,40,3988,3,2,-1,0,195,85,25,144,0,6,0,0,0,0,0,0,-32330,0,0,0,3376,0,229709,0
229836,-300,-470,-8294,-16,-42,43,3987,-2,-6,1,0,194,101,25,144,0,6,0,0,0,0,0,0,-32331,0,0,0,3376,0,229718,0
229846,-284,-480,-8300,-16,-40,38,3988,3,5,-3,0,196,99,25,144,0,6,0,0,0,0,0,0,-32331,0,0,0,3377,0,229728,0
229856,-268,-468,-8284,-15,-43,41,3988,-1,-2,1,0,201,123,25,144,0,6,0,0,0,0,0,0,-32330,0,0,0,3377,0,229738,0
229866,-278,-448,-8296,-22,-36,42,3988,-1,-6,-3,0,195,119,25,144,0,6,0,0,0,0,0,0,-32330,0,0,0,3377,0,229749,0
229876,-294,-462,-8288,-14,-46,37,3987,2,-1,1,0,197,105,25,144,0,6,0,0,0,0,0,0,-32330,0,0,0,3376,0,229759,0
229886,-318,-456,-8324,-19,-38,41,3988,0,3,0,0,197,123,25,144,0,6,0,0,0,0,0,0,-32330,0,0,0,3376,0,229770,0
229896,-284,-460,-8304,-19,-38,44,3988,2,-3,1,0,195,116,25,144,0,6,0,0,0,0,0,0,-32331,0,0,0,3376,0,229778,0
229906,-276,-448,-8294,-16,-40,38,3988,-1,0,0,0,187,93,25,144,0,6,0,0,0,0,0,0,-32330,0,0,0,3376,0,229789,0
229916,-280,-462,-8316,-17,-36,39,3988,3,-1,2,0,182,97,25,144,0,6,0,0,0,0,0,0,-32332,0,0,0,3377,0,229805,0
229926,-306,-446,-8284,-17,-43,41,3987,-3,0,0,0,182,82,25,144,0,6,0,0,0,0,0,0,-32330,0,0,0,3377,0,229816,0
229936,-266,-464,-8276,-12,-36,40,3987,1,-3,2,0,184,103,25,144,0,6,0,0,0,0,0,0,-32330,0,0,0,3377,0,229818,0
229946,-276,-478,-8282,-14,-41,47,3986,-3,0,-2,0,187,86,25,144,0,6,0,0,0,0,0,0,-32330,0,0,0,3376,0,229829,0
229956,-278,-454,-8292,-14,-38,38,3988,-7,-7,-5,0,186,90,25,144,0,6,0,0,0,0,0,0,-32332,0,0,0,3377,0,229838,0
229966,-288,-464,-8290,-13,-38,37,3988,0,0,-2,0,186,80,25,144,0,6,0,0,0,0,0,0,-32330,0,0,0,3378,0,229849,0
229976,-282,-466,-8270,-17,-38,40,3988,5,2,1,0,188,88,25,144,0,6,0,0,0,0,0,0,-32330,0,0,0,3377,0,229860,0
229986,-278,-450,-8294,-17,-41,41,3987,1,-2,1,0,192,106,25,144,0,6,0,0,0,0,0,0,-32331,0,0,0,3377,0,229872,0
229996,-250,-456,-8308,-16,-40,40,3988,4,1,-2,0,193,108,25,144,0,6,0,0,0,0,0,0,-32331,0,0,0,3376,0,229891,0
230006,-290,-452,-8286,-17,-41,38,3988,2,-4,1,0,193,86,25,144,0,6,0,0,0,0,0,0,-32330,0,0,0,3377,0,229896,0
230016,-290,-454,-8282,-14,-38,39,3987,-4,0,0,0,193,73,25,144,0,6,0,0,0,0,0,0,-32329,0,0,0,3377,0,229899,0
230026,-282,-488,-8302,-12,-39,45,3986,-4,1,0,0,199,81,25,144,0,6,0,0,0,0,0,0,-32330,0,0,0,3378,0,229911,0
230036,-290,-474,-8286,-17,-41,44,3987,-2,-3,-3,0,194,95,25,144,0,6,0,0,0,0,0,0,-32329,0,0,0,3378,0,229922,0
230046,-286,-456,-8298,-17,-36,42,3987,-4,-6,-3,0,191,78,25,144,0,6,0,0,0,0,0,0,-32331,0,0,0,3376,0,229929,0
230056,-282,-462,-8278,-20,-44,40,3987,-2,-1,-2,0,189,89,25,144,0,6,0,0,0,0,0,0,-32331,0,0,0,3376,0,229939,0
230066,-320,-454,-8292,-18,-36,43,3986,-7,-1,3,0,185,80,25,144,0,6,0,0,0,0,0,0,-32331,0,0,0,3377,0,229950,0
230076,-278,-480,-8282,-17,-43,33,3988,-1,-5,3,0,194,85,25,144,0,6,0,0,0,0,0,0,-32330,0,0,0,3376,0,229964,0
230086,-288,-452,-8294,-18,-44,39,3987,-3,2,0,0,195,92,25,144,0,6,0,0,0,0,0,0,-32330,0,0,0,3377,0,229974,0
230096,-300,-454,-8268,-16,-43,43,3987,-1,-2,-4,0,191,90,25,144,0,6,0,0,0,0,0,0,-32331,0,0,0,3377,0,229982,0
230106,-278,-462,-8316,-17,-42,38,3987,-2,-1,1,0,185,61,25,144,0,6,0,0,0,0,0,0,-32331,0,0,0,3377,0,230023,0
230116,-266,-434,-8290,-14,-42,40,3988,-1,2,-2,0,185,62,25,144,0,6,0,0,0,0,0,0,-32331,0,0,0,3377,0,230031,0
230126,-280,-466,-8274,-12,-44,41,3987,1,-1,-1,0,190,90,25,144,0,6,0,0,0,0,0,0,-32330,0,0,0,3376,0,230038,0
230136,-278,-464,-8300,-16,-39,36,3988,3,3,-6,0,185,80,25,144,0,6,0,0,0,0,0,0,-32331,0,0,0,3377,0,230049,0
230146,-286,-450,-8290,-15,-41,40,3987,3,2,0,0,190,70,25,144,0,6,0,0,0,0,0,0,-32330,0,0,0,3376,0,230054,0
230156,-256,-460,-8286,-20,-41,38,3988,5,1,0,0,192,72,25,144,0,6,0,0,0,0,0,0,-32330,0,0,0,3377,0,230066,0
230166,-282,-448,-8272,-19,-44,42,3987,0,-4,-3,0,196,80,25,144,0,6,0,0,0,0,0,0,-32330,0,0,0,3377,0,230075,0
230176,-278,-488,-8290,-18,-44,36,3987,-6,8,0,0,194,101,25,144,0,6,0,0,0,0,0,0,-32331,0,0,0,3376,0,230082,0
230186,-300,-456,-8294,-13,-39,40,3988,2,-2,0,0,195,108,25,144,0,6,0,0,0,0,0,0,-32331,0,0,0,3377,0,230085,0
230196,-300,-462,-8292,-12,-38,34,3987,-3,-3,-2,0,194,95,25,144,0,6,0,0,0,0,0,0,-32331,0,0,0,3377,0,230087,0
230206,-294,-466,-8292,-18,-43,38,3988,0,3,2,0,191,74,25,144,0,6,0,0,0,0,0,0,-32330,0,0,0,3377,0,230093,0
230216,-280,-454,-8276,-16,-38,39,3988,0,-2,3,0,190,70,25,144,0,6,0,0,0,0,0,0,-32331,0,0,0,3377,0,230098,0
230226,-284,-464,-8292,-18,-32,36,3987,-1,1,0,0,193,115,25,144,0,6,0,0,0,0,0,0,-32331,0,0,0,3376,0,230110,0
230236,-274,-504,-8298,-15,-40,44,3989,4,1,1,0,196,136,25,144,0,6,0,0,0,0,0,0,-32330,0,0,0,3377,0,230125,0
230246,-270,-470,-8290,-18,-37,37,3987,-1,-2,-4,0,201,145,25,144,0,6,0,0,0,0,0,0,-32331,0,0,0,3377,0,230130,0
230256,-290,-452,-8296,-18,-44,41,3988,1,0,-2,0,199,135,25,144,0,6,0,0,0,0,0,0,-32331,0,0,0,3377,0,230140,0
230266,-290,-472,-8274,-17,-37,43,3987,-6,-3,1,0,194,91,25,144,0,6,0,0,0,0,0,0,-32331,0,0,0,3377,0,230155,0
230276,-288,-440,-8264,-17,-43,42,3987,-3,0,0,0,194,57,25,144,0,6,0,0,0,0,0,0,-32330,0,0,0,3376,0,230162,0
230286,-294,-468,-8290,-12,-44,40,3987,-7,-1,-2,0,193,56,25,144,0,6,0,0,0,0,0,0,-32330,0,0,0,3377,0,230168,0
230296,-280,-428,-8280,-21,-40,41,3987,-4,-6,-1,0,195,46,25,144,0,6,0,0,0,0,0,0,-32330,0,0,0,3378,0,230181,0
230306,-272,-484,-8298,-15,-38,39,3987,5,-2,2,0,194,94,25,144,0,6,0,0,0,0,0,0,-32331,0,0,0,3376,0,230194,0
230316,-268,-454,-8292,-15,-39,42,3987,-1,4,1,0,193,92,25,144,0,6,0,0,0,0,0,0,-32330,0,0,0,3377,0,230204,0
230326,-302,-458,-8296,-10,-39,40,3988,6,-1,0,0,195,100,25,144,0,6,0,0,0,0,0,0,-32330,0,0,0,3377,0,230209,0
230336,-302,-472,-8290,-15,-38,43,3988,7,3,3,0,197,89,25,144,0,6,0,0,0,0,0,0,-32330,0,0,0,3377,0,230219,0
230346,-284,-468,-8288,-13,-36,42,3986,-1,-1,1,0,195,75,25,144,0,6,0,0,0,0,0,0,-32330,0,0,0,3377,0,230235,0
230356,-302,-458,-8310,-15,-43,40,3989,0,4,3,0,194,71,25,144,0,6,0,0,0,0,0,0,-32330,0,0,0,3377,0,230262,0
230366,-274,-470,-8270,-18,-37,39,3988,-2,-3,2,0,194,76,25,144,0,6,0,0,0,0,0,0,-32330,0,0,0,3377,0,230269,0
230376,-288,-464,-8308,-16,-39,41,3987,5,0,-1,0,201,79,25,144,0,6,0,0,0,0,0,0,-32330,0,0,0,3377,0,230269,0
230386,-302,-494,-8298,-18,-37,42,3986,-9,1,-2,0,200,76,25,144,0,6,0,0,0,0,0,0,-32330,0,0,0,3378,0,230272,0
230396,-286,-450,-8290,-21,-40,40,3989,2,2,-3,0,191,77,25,144,0,6,0,0,0,0,0,0,-32330,0,0,0,3377,0,230279,0
230406,-264,-470,-8306,-13,-41,39,3987,0,1,-1,944,182,77,25,144,0,6,0,0,0,0,0,0,-32331,0,0,0,3376,0,230289,0
230416,-280,-480,-8304,-16,-42,38,3988,4,2,0,2912,187,67,25,144,0,6,0,0,0,0,0,0,-32330,0,0,0,3377,0,230313,0
230426,-268,-458,-8304,-12,-43,40,3986,-6,-1,-1,4864,188,104,25,144,0,6,0,0,0,0,0,0,-32330,0,0,0,3377,0,230338,0
230436,-312,-452,-8264,-15,-43,38,3988,2,3,1,5152,186,69,25,144,0,6,0,0,0,0,0,0,-32330,0,0,0,3377,0,230345,0
230446,-274,-458,-8276,-16,-39,42,3987,0,1,3,5168,186,96,25,144,0,6,0,0,0,0,0,0,-32330,0,0,0,3378,0,230352,0
230456,-312,-450,-8298,-12,-42,45,3986,-5,-6,-3,5152,186,81,25,144,0,6,0,0,0,0,0,0,-32330,0,0,0,3377,0,230355,0
230466,-298,-468,-8294,-19,-43,38,3988,1,-1,1,5168,199,112,25,144,0,6,0,0,0,0,0,0,-32330,0,0,0,3377,0,230360,0
230476,-290,-466,-8288,-17,-38,41,3988,-2,3,0,5176,204,143,25,144,0,6,0,0,0,0,0,0,-32331,0,0,0,3377,0,230362,0
230486,-268,-468,-8286,-16,-40,36,3987,-3,-3,-2,5168,204,119,25,144,0,6,0,0,0,0,0,0,-32330,0,0,0,3376,0,230369,0
230496,-280,-484,-8276,-14,-37,42,3987,5,-4,-3,5160,197,93,25,144,0,6,0,0,0,0,0,0,-32330,0,0,0,3377,0,230380,0
230506,-270,-446,-8282,-19,-43,40,3986,0,1,-3,5152,190,75,25,144,0,6,0,0,0,0,0,0,-32331,0,0,0,3376,0,230391,0
230516,-280,-492,-8274,-22,-38,42,3986,-1,-1,0,5168,189,70,25,144,0,6,0,0,0,0,0,0,-32329,0,0,0,3377,0,230398,0
230526,-278,-462,-8298,-15,-40,42,3988,-3,1,0,5160,190,91,25,144,0,6,0,0,0,0,0,0,-32330,0,0,0,3377,0,230413,0
230536,-278,-486,-8292,-16,-42,40,3988,1,1,-3,5168,191,89,25,144,0,6,0,0,0,0,0,0,-32330,0,0,0,3377,0,230419,0
230546,-298,-466,-8286,-17,-38,39,3987,1,-3,0,5160,187,78,25,144,0,6,0,0,0,0,0,0,-32330,0,0,0,3376,0,230428,0
230556,-272,-458,-8290,-20,-44,43,3987,-11,1,0,5152,191,106,25,144,0,6,0,0,0,0,0,0,-32331,0,0,0,3377,0,230447,0
230566,-292,-464,-8280,-14,-39,37,3987,0,-1,-1,5168,194,136,25,144,0,6,0,0,0,0,0,0,-32329,0,0,0,3377,0,230452,0
230576,-284,-462,-8326,-13,-41,42,3987,0,-3,-1,5168,196,125,25,144,0,6,0,0,0,0,0,0,-32330,0,0,0,3377,0,230462,0
230586,-284,-452,-8298,-17,-45,41,3988,-3,2,-3,5160,192,91,25,144,0,6,0,0,0,0,0,0,-32331,0,0,0,3376,0,230470,0
230596,-278,-466,-8310,-22,-31,42,3986,0,-5,5,5160,194,75,25,144,0,6,0,0,0,0,0,0,-32331,0,0,0,3377,0,230482,0
230606,-272,-450,-8286,-16,-41,43,3988,-2,-1,-1,5160,187,82,25,144,0,6,0,0,0,0,0,0,-32330,0,0,0,3377,0,230488,0
230616,-282,-450,-8284,-15,-39,41,3987,-8,-1,0,5168,186,76,25,144,0,6,0,0,0,0,0,0,-32331,0,0,0,3377,0,230498,0
230626,-254,-454,-8290,-14,-37,37,3987,0,-4,0,5160,190,68,25,144,0,6,0,0,0,0,0,0,-32330,0,0,0,3377,0,230512,0
230636,-288,-476,-8290,-19,-43,43,3987,2,1,0,5168,194,79,25,144,0,6,0,0,0,0,0,0,-32331,0,0,0,3377,0,230524,0
230646,-280,-466,-8282,-19,-41,39,3986,-5,0,2,5160,193,84,25,144,0,6,0,0,0,0,0,0,-32332,0,0,0,3376,0,230558,0
230656,-280,-452,-8288,-11,-44,45,3986,-6,-2,-1,5152,188,104,25,144,0,6,0,0,0,0,0,0,-32330,0,0,0,3376,0,230570,0
230666,-306,-472,-8270,-9,-39,37,3988,1,0,-1,5160,188,91,25,144,0,6,0,0,0,0,0,0,-32330,0,0,0,3377,0,230574,0
230676,-286,-456,-8308,-22,-39,40,3989,9,7,0,5176,198,128,25,144,0,6,0,0,0,0,0,0,-32331,0,0,0,3378,0,230581,0
230686,-306,-456,-8284,-18,-39,41,3987,-1,-2,0,5168,202,120,25,144,0,6,0,0,0,0,0,0,-32330,0,0,0,3377,0,230586,0
230696,-272,-468,-8264,-14,-37,40,3988,2,0,-1,5160,199,127,25,144,0,6,0,0,0,0,0,0,-32331,0,0,0,3377,0,230594,0
230706,-270,-434,-8292,-14,-43,43,3987,-3,4,0,5168,191,114,25,144,0,6,0,0,0,0,0,0,-32330,0,0,0,3377,0,230602,0
230716,-298,-462,-8278,-14,-39,37,3988,4,2,0,5168,193,85,25,144,0,6,0,0,0,0,0,0,-32330,0,0,0,3378,0,230612,0
230726,-280,-492,-8282,-17,-42,37,3987,-5,-3,0,5168,197,76,25,144,0,6,0,0,0,0,0,0,-32331,0,0,0,3377,0,230617,0
230736,-296,-456,-8272,-16,-37,42,3987,-2,-1,-3,5168,195,69,25,144,0,6,0,0,0,0,0,0,-32331,0,0,0,3377,0,230631,0
230746,-316,-484,-8280,-16,-39,41,3988,1,1,4,5152,185,46,25,144,0,6,0,0,0,0,0,0,-32330,0,0,0,3377,0,230663,0
230756,-298,-492,-8290,-14,-37,41,3987,1,1,0,5152,184,47,25,144,0,6,0,0,0,0,0,0,-32330,0,0,0,3377,0,230668,0
230766,-298,-472,-8294,-16,-40,40,3987,-3,-4,-2,5176,190,68,25,144,0,6,0,0,0,0,0,0,-32331,0,0,0,3377,0,230673,0
230776,-270,-464,-8276,-18,-39,40,3988,-3,-3,1,5152,189,84,25,144,0,6,0,0,0,0,0,0,-32331,0,0,0,3376,0,230684,0
230786,-296,-468,-8266,-15,-43,38,3987,0,-1,-2,5152,194,84,25,144,0,6,0,0,0,0,0,0,-32331,0,0,0,3377,0,230691,0
230796,-274,-456,-8284,-18,-38,40,3988,-1,1,0,5160,189,89,25,144,0,6,0,0,0,0,0,0,-32331,0,0,0,3377,0,230699,0
230806,-308,-456,-8300,-20,-40,37,3988,2,0,0,5160,192,104,25,144,0,6,0,0,0,0,0,0,-32330,0,0,0,3377,0,230703,0
230816,-296,-472,-8288,-14,-43,36,3989,5,-2,-4,5168,195,117,25,144,0,6,0,0,0,0,0,0,-32330,0,0,0,3377,0,230712,0
230826,-284,-476,-8298,-17,-39,45,3987,3,-2,-2,5168,201,136,25,144,0,6,0,0,0,0,0,0,-32330,0,0,0,3377,0,230714,0
230836,-296,-494,-8282,-16,-40,36,3988,-1,0,-3,5168,200,133,25,144,0,6,0,0,0,0,0,0,-32330,0,0,0,3376,0,230722,0
230846,-280,-472,-8294,-14,-37,41,3988,-1,-1,1,5176,194,117,25,144,0,6,0,0,0,0,0,0,-32331,0,0,0,3377,0,230742,0
230856,-276,-452,-8292,-14,-38,40,3987,-3,3,-1,5152,188,90,25,144,0,6,0,0,0,0,0,0,-32330,0,0,0,3377,0,230758,0
230866,-270,-446,-8312,-17,-40,41,3988,1,-4,-2,5160,194,92,25,144,0,6,0,0,0,0,0,0,-32330,0,0,0,3377,0,230770,0
230876,-268,-434,-8302,-13,-41,41,3987,-3,4,-1,5160,192,78,25,144,0,6,0,0,0,0,0,0,-32330,0,0,0,3377,0,230780,0
230886,-308,-474,-8298,-18,-45,42,3988,3,-4,0,5160,193,54,25,144,0,6,0,0,0,0,0,0,-32331,0,0,0,3377,0,230783,0
230896,-286,-476,-8294,-16,-39,38,3988,3,-3,2,5160,192,73,25,144,0,6,0,0,0,0,0,0,-32330,0,0,0,3377,0,230789,0
230906,-276,-464,-8252,-22,-36,40,3987,-2,-2,0,5160,194,86,25,144,0,6,0,0,0,0,0,0,-32330,0,0,0,3377,0,230797,0
230916,-274,-484,-8282,-16,-37,39,3987,-2,1,2,5168,191,92,25,144,0,6,0,0,0,0,0,0,-32331,0,0,0,3377,0,230808,0
230926,-292,-482,-8286,-15,-43,40,3988,4,-2,2,5160,188,52,25,144,0,6,0,0,0,0,0,0,-32330,0,0,0,3377,0,230813,0
230936,-270,-470,-8274,-20,-46,41,3986,-1,1,0,5160,188,33,25,144,0,6,0,0,0,0,0,0,-32330,0,0,0,3378,0,230818,0
230946,-294,-452,-8286,-15,-39,41,3986,-3,-3,-1,5160,196,84,25,144,0,6,0,0,0,0,0,0,-32331,0,0,0,3377,0,230828,0
230956,-284,-468,-8288,-15,-40,44,3987,-1,6,-1,5152,199,112,25,144,0,6,0,0,0,0,0,0,-32331,0,0,0,3377,0,230842,0
230966,-290,-468,-8294,-14,-41,40,3987,-3,-1,-4,5168,200,140,25,144,0,6,0,0,0,0,0,0,-32330,0,0,0,3377,0,230849,0
230976,-274,-440,-8280,-16,-37,40,3988,0,2,1,5160,197,114,25,144,0,6,0,0,0,0,0,0,-32331,0,0,0,3377,0,230864,0
230986,-298,-464,-8292,-14,-38,43,3987,1,-2,-3,5168,196,60,25,144,0,6,0,0,0,0,0,0,-32331,0,0,0,3377,0,230869,0
230996,-278,-438,-8294,-17,-42,43,3987,-2,2,3,5160,193,60,25,144,0,6,0,0,0,0,0,0,-32330,0,0,0,3376,0,230882,0
231006,-282,-472,-8298,-14,-39,37,3988,1,1,-2,5168,189,55,25,144,0,6,0,0,0,0,0,0,-32330,0,0,0,3377,0,230892,0
231016,-316,-438,-8292,-16,-41,43,3988,1,-2,-5,5168,190,63,25,144,0,6,0,0,0,0,0,0,-32330,0,0,0,3376,0,230905,0
231026,-284,-450,-8278,-17,-38,40,3988,4,0,4,5160,191,33,25,144,0,6,0,0,0,0,0,0,-32331,0,0,0,3376,0,230912,0
231036,-256,-434,-8288,-18,-39,41,3987,-9,4,0,5168,191,45,25,144,0,6,0,0,0,0,0,0,-32330,0,0,0,3376,0,230919,0
231046,-284,-464,-8292,-14,-36,39,3987,-5,-1,2,5160,187,46,25,144,0,6,0,0,0,0,0,0,-32330,0,0,0,3376,0,230928,0
231056,-258,-448,-8294,-16,-39,37,3988,1,1,0,5152,190,66,25,144,0,6,0,0,0,0,0,0,-32331,0,0,0,3377,0,230942,0
231066,-284,-468,-8298,-14,-42,39,3987,0,0,-4,5168,194,81,25,144,0,6,0,0,0,0,0,0,-32331,0,0,0,3376,0,230967,0
231076,-294,-470,-8292,-13,-33,38,3987,1,1,2,5160,199,77,25,144,0,6,0,0,0,0,0,0,-32330,0,0,0,3376,0,230978,0
231086,-290,-454,-8272,-14,-41,41,3986,-4,-2,0,5160,192,66,25,144,0,6,0,0,0,0,0,0,-32330,0,0,0,3376,0,230986,0
231096,-304,-478,-8276,-15,-36,39,3986,2,0,1,5168,185,65,25,144,0,6,0,0,0,0,0,0,-32330,0,0,0,3377,0,230992,0
231106,-278,-486,-8288,-14,-41,38,3987,5,3,0,5160,185,49,25,144,0,6,0,0,0,0,0,0,-32330,0,0,0,3376,0,230997,0
231116,-274,-470,-8280,-11,-42,37,3988,0,-2,-1,5168,193,108,25,144,0,6,0,0,0,0,0,0,-32330,0,0,0,3376,0,231002,0
231126,-294,-452,-8274,-14,-39,41,3987,0,2,2,5176,205,84,25,144,0,6,0,0,0,0,0,0,-32330,0,0,0,3376,0,231016,0
231136,-274,-458,-8282,-10,-41,45,3986,-2,4,-2,5160,202,69,25,144,0,6,0,0,0,0,0,0,-32330,0,0,0,3376,0,231019,0
231146,-302,-438,-8274,-13,-45,42,3988,-1,-2,0,5152,194,52,25,144,0,6,0,0,0,0,0,0,-32331,0,0,0,3375,0,231050,0
231156,-280,-452,-8270,-14,-41,39,3986,-7,1,-2,5152,186,4,25,144,0,6,0,0,0,0,0,0,-32330,0,0,0,3376,0,231067,0
231166,-300,-462,-8298,-18,-40,44,3987,0,2,-3,5168,191,34,25,144,0,6,0,0,0,0,0,0,-32331,0,0,0,3376,0,231074,0
231176,-292,-482,-8290,-14,-39,42,3988,1,1,2,5160,193,42,25,144,0,6,0,0,0,0,0,0,-32331,0,0,0,3376,0,231077,0
231186,-256,-472,-8280,-15,-44,37,3987,7,3,-7,5168,192,24,25,144,0,6,0,0,0,0,0,0,-32329,0,0,0,3377,0,231079,0
231196,-282,-448,-8294,-18,-41,43,3988,-1,-5,-2,5160,190,23,25,144,0,6,0,0,0,0,0,0,-32330,0,0,0,3376,0,231082,0
231206,-278,-472,-8276,-14,-39,41,3987,1,2,0,5168,188,30,25,144,0,6,0,0,0,0,0,0,-32332,0,0,0,3377,0,231092,0
231216,-286,-454,-8288,-19,-49,38,3987,-4,-1,-4,5168,191,27,25,144,0,6,0,0,0,0,0,0,-32331,0,0,0,3377,0,231114,0
231226,-290,-460,-8270,-19,-43,39,3987,1,-3,0,5160,189,17,25,144,0,6,0,0,0,0,0,0,-32330,0,0,0,3377,0,231116,0
231236,-296,-450,-8292,-14,-41,34,3987,-1,-1,-1,5152,186,18,25,144,0,6,0,0,0,0,0,0,-32330,0,0,0,3376,0,231118,0
231246,-266,-462,-8276,-12,-38,40,3988,1,0,0,5160,189,71,25,144,0,6,0,0,0,0,0,0,-32330,0,0,0,3376,0,231130,0
231256,-266,-472,-8280,-11,-34,41,3988,4,1,0,5160,195,111,25,144,0,6,0,0,0,0,0,0,-32331,0,0,0,3376,0,231144,0
231266,-284,-464,-8296,-17,-46,40,3987,0,2,0,5160,203,113,25,144,0,6,0,0,0,0,0,0,-32331,0,0,0,3376,0,231152,0
231276,-292,-462,-8288,-20,-40,42,3988,3,2,0,5176,201,89,25,144,0,6,0,0,0,0,0,0,-32331,0,0,0,3377,0,231159,0
231286,-266,-454,-8282,-12,-41,40,3987,-6,-1,0,5168,196,43,25,144,0,6,0,0,0,0,0,0,-32330,0,0,0,3376,0,231171,0
231296,-290,-458,-8296,-14,-40,40,3987,-3,-2,0,5168,198,78,25,144,0,6,0,0,0,0,0,0,-32330,0,0,0,3376,0,231187,0
231306,-274,-458,-8284,-20,-41,39,3987,-8,-1,0,5152,199,89,25,144,0,6,0,0,0,0,0,0,-32330,0,0,0,3377,0,231189,0
231316,-274,-472,-8276,-15,-40,41,3988,5,4,-2,5168,196,76,25,144,0,6,0,0,0,0,0,0,-32331,0,0,0,3377,0,231201,0
231326,-276,-456,-8282,-9,-41,36,3988,5,7,4,5160,193,21,25,144,0,6,0,0,0,0,0,0,-32330,0,0,0,3377,0,231209,0
231336,-276,-470,-8286,-17,-45,39,3987,-7,-1,0,5160,191,12,25,144,0,6,0,0,0,0,0,0,-32330,0,0,0,3376,0,231226,0
231346,-312,-464,-8270,-17,-46,42,3987,-7,3,0,5152,189,40,25,144,0,6,0,0,0,0,0,0,-32331,0,0,0,3377,0,231232,0
231356,-306,-454,-8276,-17,-40,41,3987,-7,-2,-5,5168,191,63,25,144,0,6,0,0,0,0,0,0,-32330,0,0,0,3377,0,231239,0
231366,-290,-468,-8302,-18,-40,44,3987,-4,-2,0,5160,196,63,25,144,0,6,0,0,0,0,0,0,-32332,0,0,0,3377,0,231248,0
231376,-266,-448,-8278,-22,-38,41,3988,5,1,0,5160,197,44,25,144,0,6,0,0,0,0,0,0,-32331,0,0,0,3377,0,231265,0
231386,-294,-470,-8296,-18,-42,40,3988,0,3,0,5160,199,62,25,144,0,6,0,0,0,0,0,0,-32331,0,0,0,3377,0,231270,0
231396,-274,-454,-8276,-16,-35,40,3989,5,4,0,5168,195,68,25,144,0,6,0,0,0,0,0,0,-32332,0,0,0,3377,0,231302,0
231406,-280,-480,-8292,-10,-33,42,3987,2,2,0,5160,194,58,25,144,0,6,0,0,0,0,0,0,-32330,0,0,0,3377,0,231304,0
231416,-270,-458,-8282,-15,-42,37,3987,-7,-2,0,5168,193,43,25,144,0,6,0,0,0,0,0,0,-32330,0,0,0,3378,0,231307,0
231426,-272,-446,-8278,-17,-35,38,3986,-1,-4,0,5168,194,37,25,144,0,6,0,0,0,0,0,0,-32330,0,0,0,3377,0,231310,0
231436,-278,-460,-8302,-14,-42,40,3987,-2,-1,-2,5160,193,43,25,144,0,6,0,0,0,0,0,0,-32331,0,0,0,3376,0,231323,0
231446,-294,-450,-8274,-16,-39,41,3987,0,0,2,5168,188,22,25,144,0,6,0,0,0,0,0,0,-32330,0,0,0,3376,0,231328,0
231456,-290,-460,-8338,-15,-39,42,3987,1,-2,1,5152,186,32,25,144,0,6,0,0,0,0,0,0,-32330,0,0,0,3377,0,231339,0
231466,-284,-496,-8256,-17,-45,44,3988,1,3,-1,5168,190,51,25,144,0,6,0,0,0,0,0,0,-32331,0,0,0,3377,0,231361,0
231476,-276,-466,-8270,-20,-37,38,3987,-2,-1,0,5160,191,63,25,144,0,6,0,0,0,0,0,0,-32331,0,0,0,3377,0,231366,0
231486,-290,-468,-8304,-17,-42,41,3989,1,4,-3,5168,194,89,25,144,0,6,0,0,0,0,0,0,-32330,0,0,0,3376,0,231374,0
231496,-268,-464,-8294,-18,-39,43,3988,2,1,3,5168,188,48,25,144,0,6,0,0,0,0,0,0,-32330,0,0,0,3376,0,231402,0
231506,-286,-470,-8300,-21,-40,43,3988,1,2,4,5152,190,51,25,144,0,6,0,0,0,0,0,0,-32330,0,0,0,3378,0,231404,0
231516,-278,-464,-8302,-16,-38,39,3987,-1,2,0,5168,196,69,25,144,0,6,0,0,0,0,0,0,-32330,0,0,0,3377,0,231410,0
231526,-296,-486,-8282,-19,-39,41,3987,4,-2,1,5176,194,31,25,144,0,6,0,0,0,0,0,0,-32330,0,0,0,3377,0,231422,0
231536,-280,-450,-8316,-24,-44,41,3988,6,4,1,5168,189,28,25,144,0,6,0,0,0,0,0,0,-32330,0,0,0,3378,0,231425,0
231546,-296,-478,-8272,-18,-41,43,3988,0,3,-1,5168,180,12,25,144,0,6,0,0,0,0,0,0,-32330,0,0,0,3376,0,231432,0
231556,-300,-466,-8278,-14,-37,40,3986,0,-6,1,5168,177,22,25,144,0,6,0,0,0,0,0,0,-32330,0,0,0,3376,0,231443,0
231566,-280,-446,-8264,-17,-40,37,3988,-4,2,6,5160,184,39,25,144,0,6,0,0,0,0,0,0,-32330,0,0,0,3377,0,231452,0
231576,-290,-440,-8278,-15,-39,36,3986,-5,-10,2,5176,190,60,25,144,0,6,0,0,0,0,0,0,-32330,0,0,0,3378,0,231465,0
231586,-292,-476,-8300,-14,-42,42,3987,3,-3,-2,5168,187,79,25,144,0,6,0,0,0,0,0,0,-32330,0,0,0,3376,0,231472,0
231596,-292,-428,-8294,-16,-38,38,3987,-1,1,0,5160,185,72,25,144,0,6,0,0,0,0,0,0,-32330,0,0,0,3377,0,231486,0
231606,-298,-466,-8304,-14,-40,41,3988,0,2,-2,5160,188,56,25,144,0,6,0,0,0,0,0,0,-32330,0,0,0,3376,0,231504,0
231616,-292,-462,-8272,-17,-42,40,3986,1,-4,-3,5176,188,28,25,144,0,6,0,0,0,0,0,0,-32331,0,0,0,3376,0,231512,0
231626,-286,-456,-8278,-14,-35,41,3987,0,0,0,5168,191,35,25,144,0,6,0,0,0,0,0,0,-32330,0,0,0,3376,0,231515,0
231636,-292,-454,-8316,-19,-40,41,3988,5,-1,-2,5168,188,40,25,144,0,6,0,0,0,0,0,0,-32330,0,0,0,3377,0,231549,0
231646,-272,-440,-8276,-13,-42,38,3986,-3,-2,0,5168,188,40,25,144,0,6,0,0,0,0,0,0,-32330,0,0,0,3377,0,231562,0
231656,-286,-480,-8284,-18,-44,37,3988,5,-2,-1,5168,185,38,25,144,0,6,0,0,0,0,0,0,-32331,0,0,0,3376,0,231565,0
231666,-300,-472,-8274,-19,-45,43,3988,1,4,0,5168,190,55,25,144,0,6,0,0,0,0,0,0,-32330,0,0,0,3376,0,231569,0
231676,-280,-490,-8302,-16,-36,40,3987,-7,-2,4,5152,187,52,25,144,0,6,0,0,0,0,0,0,-32330,0,0,0,3377,0,231576,0
231686,-292,-470,-8276,-17,-37,40,3987,-2,-1,-4,5168,184,38,25,144,0,6,0,0,0,0,0,0,-32330,0,0,0,3376,0,231598,0
231696,-286,-462,-8276,-13,-36,41,3988,-2,0,0,5160,183,41,25,144,0,6,0,0,0,0,0,0,-32330,0,0,0,3376,0,231605,0
231706,-270,-486,-8292,-23,-39,42,3988,5,-1,-2,5160,190,76,25,144,0,6,0,0,0,0,0,0,-32330,0,0,0,3376,0,231612,0
231716,-270,-450,-8286,-17,-39,41,3987,-7,2,-3,5176,189,60,25,144,0,6,0,0,0,0,0,0,-32330,0,0,0,3376,0,231622,0
231726,-272,-448,-8304,-21,-41,41,3987,-1,-1,-1,5160,189,72,25,144,0,6,0,0,0,0,0,0,-32330,0,0,0,3377,0,231625,0
231736,-278,-464,-8288,-12,-43,37,3987,1,-2,-3,5168,190,85,25,144,0,6,0,0,0,0,0,0,-32330,0,0,0,3377,0,231627,0
231746,-270,-468,-8290,-16,-40,42,3986,-3,-4,-2,5168,192,95,25,144,0,6,0,0,0,0,0,0,-32330,0,0,0,3376,0,231636,0
231756,-300,-470,-8300,-19,-39,38,3987,-7,0,-1,5168,192,87,25,144,0,6,0,0,0,0,0,0,-32330,0,0,0,3377,0,231645,0
231766,-284,-484,-8296,-18,-42,38,3988,-3,-1,-1,5168,188,41,25,144,0,6,0,0,0,0,0,0,-32330,0,0,0,3377,0,231652,0
231776,-276,-452,-8272,-12,-41,42,3987,-4,2,2,5176,188,19,25,144,0,6,0,0,0,0,0,0,-32330,0,0,0,3376,0,231658,0
231786,-296,-462,-8312,-17,-40,39,3987,-3,1,0,5152,185,20,25,144,0,6,0,0,0,0,0,0,-32330,0,0,0,3377,0,231669,0
231796,-266,-470,-8296,-18,-45,36,3988,7,-1,1,5168,188,45,25,144,0,6,0,0,0,0,0,0,-32332,0,0,0,3377,0,231681,0
231806,-274,-476,-8280,-18,-39,38,3989,10,-1,0,5160,188,79,25,144,0,6,0,0,0,0,0,0,-32329,0,0,0,3377,0,231689,0
231816,-266,-458,-8284,-20,-41,41,3988,-1,-4,1,5168,194,70,25,144,0,6,0,0,0,0,0,0,-32330,0,0,0,3377,0,231708,0
231826,-254,-444,-8306,-18,-36,41,3986,-2,0,-1,5160,193,65,25,144,0,6,0,0,0,0,0,0,-32330,0,0,0,3377,0,231719,0
231836,-272,-490,-8306,-16,-43,33,3989,7,3,2,5160,193,53,25,144,0,6,0,0,0,0,0,0,-32330,0,0,0,3376,0,231727,0
231846,-314,-428,-8298,-14,-36,42,3988,-1,0,2,5168,187,81,25,144,0,6,0,0,0,0,0,0,-32332,0,0,0,3378,0,231738,0
231856,-286,-432,-8292,-18,-36,39,3986,0,3,1,5160,185,70,25,144,0,6,0,0,0,0,0,0,-32331,0,0,0,3377,0,231740,0
231866,-300,-462,-8296,-16,-40,45,3987,-1,4,1,5168,186,60,25,144,0,6,0,0,0,0,0,0,-32330,0,0,0,3376,0,231752,0
231876,-276,-466,-8302,-15,-38,41,3988,1,2,1,5160,184,44,25,144,0,6,0,0,0,0,0,0,-32330,0,0,0,3377,0,231759,0
231886,-280,-464,-8292,-14,-40,39,3986,-3,6,0,5160,181,47,25,144,0,6,0,0,0,0,0,0,-32330,0,0,0,3376,0,231770,0
231896,-276,-456,-8300,-15,-40,42,3989,10,-2,1,5160,181,59,25,144,0,6,0,0,0,0,0,0,-32332,0,0,0,3376,0,231788,0
231906,-280,-460,-8286,-21,-42,39,3989,13,0,0,5160,181,40,25,144,0,6,0,0,0,0,0,0,-32331,0,0,0,3377,0,231805,0
231916,-288,-464,-8284,-12,-39,38,3987,-6,-4,1,5168,186,37,25,144,0,6,0,0,0,0,0,0,-32330,0,0,0,3376,0,231812,0
231926,-262,-466,-8286,-14,-39,45,3988,-3,1,4,5160,186,50,25,144,0,6,0,0,0,0,0,0,-32331,0,0,0,3377,0,231817,0
231936,-278,-468,-8294,-9,-42,38,3987,0,1,-1,5176,188,65,25,144,0,6,0,0,0,0,0,0,-32331,0,0,0,3376,0,231820,0
231946,-300,-486,-8272,-17,-37,39,3988,1,0,1,5168,186,54,25,144,0,6,0,0,0,0,0,0,-32331,0,0,0,3377,0,231831,0
231956,-292,-460,-8310,-15,-37,43,3987,0,1,0,5160,184,31,25,144,0,6,0,0,0,0,0,0,-32330,0,0,0,3377,0,231849,0
231966,-286,-466,-8282,-19,-34,39,3987,8,1,1,5168,186,10,25,144,0,6,0,0,0,0,0,0,-32330,0,0,0,3376,0,231869,0
231976,-280,-468,-8278,-16,-36,44,3988,-5,-4,0,5160,186,57,25,144,0,6,0,0,0,0,0,0,-32331,0,0,0,3376,0,231880,0
231986,-270,-476,-8302,-15,-39,39,3988,-3,-6,0,5160,185,65,25,144,0,6,0,0,0,0,0,0,-32331,0,0,0,3376,0,231885,0
231996,-260,-472,-8294,-19,-36,44,3988,10,0,-1,5168,188,89,25,144,0,6,0,0,0,0,0,0,-32330,0,0,0,3377,0,231892,0
232006,-292,-454,-8296,-15,-42,40,3989,9,3,-1,5160,191,87,25,144,0,6,0,0,0,0,0,0,-32331,0,0,0,3376,0,231904,0
232016,-284,-450,-8296,-17,-42,40,3987,0,0,0,5168,192,47,25,144,0,6,0,0,0,0,0,0,-32331,0,0,0,3376,0,231909,0
232026,-292,-476,-8300,-16,-40,38,3986,-5,3,3,5160,185,40,25,144,0,6,0,0,0,0,0,0,-32331,0,0,0,3377,0,231942,0
232036,-306,-460,-8310,-15,-44,36,3987,-3,1,0,5168,178,24,25,144,0,6,0,0,0,0,0,0,-32331,0,0,0,3376,0,231945,0
232046,-278,-458,-8286,-15,-39,34,3987,-8,2,1,5160,186,58,25,144,0,6,0,0,0,0,0,0,-32330,0,0,0,3377,0,231955,0
232056,-292,-454,-8288,-22,-41,39,3986,-3,4,0,5152,189,74,25,144,0,6,0,0,0,0,0,0,-32331,0,0,0,3376,0,231960,0
232066,-292,-458,-8310,-18,-43,38,3989,10,8,-3,5176,193,63,25,144,0,6,0,0,0,0,0,0,-32330,0,0,0,3378,0,231967,0
232076,-288,-448,-8290,-11,-42,38,3987,-3,-7,0,5160,188,73,25,144,0,6,0,0,0,0,0,0,-32330,0,0,0,3377,0,231970,0
232086,-294,-454,-8258,-17,-38,39,3987,2,-1,1,5168,189,63,25,144,0,6,0,0,0,0,0,0,-32331,0,0,0,3378,0,231981,0
232096,-286,-468,-8288,-15,-42,41,3988,-1,0,1,5176,187,63,25,144,0,6,0,0,0,0,0,0,-32331,0,0,0,3376,0,231988,0
232106,-274,-476,-8258,-15,-36,38,3987,-7,-5,2,5160,191,56,25,144,0,6,0,0,0,0,0,0,-32330,0,0,0,3377,0,231990,0
232116,-274,-464,-8288,-16,-38,40,3987,0,-3,0,5160,191,38,25,144,0,6,0,0,0,0,0,0,-32330,0,0,0,3378,0,231999,0
232126,-282,-466,-8300,-16,-42,43,3987,-2,-1,1,5160,188,50,25,144,0,6,0,0,0,0,0,0,-32330,0,0,0,3376,0,232020,0
232136,-284,-472,-8282,-19,-40,39,3988,3,-5,0,5168,191,61,25,144,0,6,0,0,0,0,0,0,-32330,0,0,0,3376,0,232036,0
232146,-270,-478,-8304,-17,-40,38,3988,3,-1,0,5168,188,94,25,144,0,6,0,0,0,0,0,0,-32331,0,0,0,3376,0,232041,0
232156,-286,-484,-8300,-15,-36,40,3988,3,2,-1,5160,189,90,25,144,0,6,0,0,0,0,0,0,-32329,0,0,0,3378,0,232049,0
232166,-286,-478,-8276,-18,-45,40,3986,-2,-3,-2,5168,189,71,25,144,0,6,0,0,0,0,0,0,-32330,0,0,0,3376,0,232057,0
232176,-274,-482,-8290,-14,-32,38,3987,4,2,-1,5160,189,70,25,144,0,6,0,0,0,0,0,0,-32330,0,0,0,3376,0,232060,0
232186,-284,-488,-8312,-19,-39,41,3987,-3,-8,-1,5160,187,61,25,144,0,6,0,0,0,0,0,0,-32330,0,0,0,3376,0,232071,0
232196,-296,-460,-8282,-16,-41,44,3989,3,1,1,5176,186,61,25,144,0,6,0,0,0,0,0,0,-32330,0,0,0,3376,0,232082,0
232206,-266,-478,-8282,-19,-38,42,3988,0,-4,0,5168,188,54,25,144,0,6,0,0,0,0,0,0,-32330,0,0,0,3378,0,232089,0
232216,-290,-458,-8280,-16,-42,40,3987,-2,2,1,5168,187,58,25,144,0,6,0,0,0,0,0,0,-32330,0,0,0,3376,0,232098,0
232226,-284,-444,-8304,-17,-42,43,3988,9,-3,0,5160,186,71,25,144,0,6,0,0,0,0,0,0,-32331,0,0,0,3378,0,232110,0
232236,-304,-492,-8302,-17,-36,46,3989,5,3,0,5176,185,82,25,144,0,6,0,0,0,0,0,0,-32330,0,0,0,3378,0,232120,0
232246,-274,-456,-8296,-13,-40,39,3988,7,2,2,5168,186,66,25,144,0,6,0,0,0,0,0,0,-32330,0,0,0,3377,0,232142,0
232256,-286,-412,-8306,-16,-37,41,3987,6,5,0,5168,188,66,25,144,0,6,0,0,0,0,0,0,-32330,0,0,0,3378,0,232163,0
232266,-278,-470,-8296,-12,-38,42,3987,-3,1,-2,5168,193,75,25,144,0,6,0,0,0,0,0,0,-32331,0,0,0,3376,0,232179,0
232276,-304,-434,-8258,-19,-38,37,3989,10,-2,0,5160,191,70,25,144,0,6,0,0,0,0,0,0,-32331,0,0,0,3378,0,232184,0
232286,-294,-468,-8294,-18,-40,43,3986,1,-2,0,5160,191,75,25,144,0,6,0,0,0,0,0,0,-32330,0,0,0,3377,0,232192,0
232296,-290,-460,-8304,-17,-44,38,3987,-1,3,0,5168,185,88,25,144,0,6,0,0,0,0,0,0,-32330,0,0,0,3377,0,232195,0
232306,-282,-470,-8282,-15,-42,42,3988,2,-2,2,5160,190,93,25,144,0,6,0,0,0,0,0,0,-32330,0,0,0,3377,0,232202,0
232316,-274,-442,-8304,-19,-37,38,3986,-2,-3,-3,5176,192,125,25,144,0,6,0,0,0,0,0,0,-32330,0,0,0,3377,0,232212,0
232326,-268,-462,-8274,-17,-42,40,3987,2,1,3,5168,188,99,25,144,0,6,0,0,0,0,0,0,-32330,0,0,0,3376,0,232227,0
232336,-304,-484,-8272,-22,-38,37,3986,-4,-3,0,5168,188,74,25,144,0,6,0,0,0,0,0,0,-32330,0,0,0,3378,0,232238,0
232346,-286,-442,-8292,-13,-40,38,3987,0,-7,-2,5168,188,69,25,144,0,6,0,0,0,0,0,0,-32330,0,0,0,3376,0,232244,0
232356,-256,-484,-8264,-19,-38,38,3988,0,1,4,5152,188,71,25,144,0,6,0,0,0,0,0,0,-32330,0,0,0,3376,0,232256,0
232366,-284,-474,-8306,-10,-39,39,3987,-11,-3,-3,5160,187,82,25,144,0,6,0,0,0,0,0,0,-32330,0,0,0,3376,0,232262,0
232376,-266,-448,-8294,-17,-38,41,3988,1,-1,-2,5160,188,116,25,144,0,6,0,0,0,0,0,0,-32329,0,0,0,3376,0,232267,0
232386,-294,-498,-8278,-15,-42,38,3988,-1,0,-2,5168,191,114,25,144,0,6,0,0,0,0,0,0,-32330,0,0,0,3376,0,232269,0
232396,-278,-456,-8276,-14,-46,39,3986,-6,-1,1,5176,189,101,25,144,0,6,0,0,0,0,0,0,-32331,0,0,0,3376,0,232289,0
232406,-292,-448,-8276,-21,-41,39,3987,4,-3,0,5168,187,43,25,144,0,6,0,0,0,0,0,0,-32330,0,0,0,3377,0,232343,0
232416,-284,-496,-8294,-14,-41,37,3988,-1,4,1,5168,186,23,25,144,0,6,0,0,0,0,0,0,-32330,0,0,0,3377,0,232352,0
232426,-286,-462,-8308,-16,-45,41,3988,6,-3,0,5160,185,29,25,144,0,6,0,0,0,0,0,0,-32330,0,0,0,3376,0,232356,0
232436,-274,-462,-8282,-19,-33,41,3987,0,0,1,5160,184,48,25,144,0,6,0,0,0,0,0,0,-32329,0,0,0,3376,0,232358,0
232446,-280,-470,-8310,-16,-43,38,3988,1,-1,-3,5168,184,86,25,144,0,6,0,0,0,0,0,0,-32330,0,0,0,3377,0,232364,0
232456,-294,-470,-8288,-16,-41,43,3988,-5,-2,-3,5160,190,83,25,144,0,6,0,0,0,0,0,0,-32330,0,0,0,3377,0,232364,0
232466,-302,-448,-8298,-21,-42,41,3988,-1,-1,0,5168,191,65,25,144,0,6,0,0,0,0,0,0,-32332,0,0,0,3376,0,232364,0
232476,-310,-450,-8310,-19,-42,39,3987,-5,-1,0,5176,197,86,25,144,0,6,0,0,0,0,0,0,-32331,0,0,0,3377,0,232366,0
232486,-296,-458,-8282,-18,-39,39,3989,11,-1,0,5160,194,82,25,144,0,6,0,0,0,0,0,0,-32330,0,0,0,3378,0,232371,0
232496,-262,-460,-8310,-14,-41,44,3988,-1,8,0,5168,194,105,25,144,0,6,0,0,0,0,0,0,-32330,0,0,0,3377,0,232378,0
232506,-280,-458,-8280,-19,-41,43,3987,0,-3,2,5168,194,95,25,144,0,6,0,0,0,0,0,0,-32330,0,0,0,3377,0,232388,0
232516,-276,-454,-8300,-15,-44,37,3988,-3,4,-1,5168,187,90,25,144,0,6,0,0,0,0,0,0,-32331,0,0,0,3376,0,232405,0
232526,-264,-490,-8280,-14,-40,40,3987,-4,-7,-1,5160,190,105,25,144,0,6,0,0,0,0,0,0,-32330,0,0,0,3376,0,232412,0
232536,-298,-462,-8302,-21,-33,41,3988,2,4,0,5176,193,118,25,144,0,6,0,0,0,0,0,0,-32331,0,0,0,3377,0,232424,0
232546,-288,-458,-8286,-21,-49,40,3988,0,0,-3,5168,193,111,25,144,0,6,0,0,0,0,0,0,-32330,0,0,0,3377,0,232431,0
232556,-254,-462,-8258,-19,-40,40,3988,1,0,3,5168,193,106,25,144,0,6,0,0,0,0,0,0,-32330,0,0,0,3376,0,232441,0
232566,-254,-426,-8300,-12,-35,41,3988,3,3,-1,5168,196,128,25,144,0,6,0,0,0,0,0,0,-32330,0,0,0,3376,0,232457,0
232576,-278,-498,-8250,-18,-41,36,3987,-8,-2,-2,5160,193,102,25,144,0,6,0,0,0,0,0,0,-32331,0,0,0,3377,0,232462,0
232586,-292,-478,-8296,-13,-35,37,3988,3,-3,-5,5168,194,98,25,144,0,6,0,0,0,0,0,0,-32332,0,0,0,3376,0,232470,0
232596,-264,-488,-8302,-12,-45,35,3987,-2,-5,0,5176,183,60,25,144,0,6,0,0,0,0,0,0,-32330,0,0,0,3375,0,232478,0
232606,-282,-488,-8294,-14,-38,43,3987,-4,-6,0,5152,187,43,25,144,0,6,0,0,0,0,0,0,-32331,0,0,0,3376,0,232493,0
232616,-292,-458,-8276,-19,-37,39,3987,2,-5,2,5168,186,58,25,144,0,6,0,0,0,0,0,0,-32331,0,0,0,3376,0,232509,0
232626,-296,-452,-8278,-17,-43,37,3987,-5,2,0,5160,192,116,25,144,0,6,0,0,0,0,0,0,-32330,0,0,0,3377,0,232513,0
232636,-304,-458,-8296,-18,-41,41,3989,1,3,3,5160,194,138,25,144,0,6,0,0,0,0,0,0,-32330,0,0,0,3376,0,232522,0
232646,-286,-458,-8310,-19,-40,38,3988,-2,-1,-3,5168,202,168,25,144,0,6,0,0,0,0,0,0,-32331,0,0,0,3375,0,232544,0
232656,-294,-470,-8264,-17,-36,41,3986,-1,-2,0,5152,205,173,25,144,0,6,0,0,0,0,0,0,-32331,0,0,0,3377,0,232584,0
232666,-272,-464,-8290,-13,-42,39,3988,0,2,0,5168,200,146,25,144,0,6,0,0,0,0,0,0,-32330,0,0,0,3377,0,232589,0
232676,-278,-460,-8282,-17,-37,36,3988,0,0,0,5176,203,113,25,144,0,6,0,0,0,0,0,0,-32330,0,0,0,3376,0,232592,0
232686,-286,-464,-8302,-14,-42,44,3988,5,0,2,5168,195,76,25,144,0,6,0,0,0,0,0,0,-32330,0,0,0,3376,0,232597,0
232696,-294,-436,-8288,-16,-44,41,3987,1,1,-2,5176,190,80,25,144,0,6,0,0,0,0,0,0,-32330,0,0,0,3377,0,232600,0
232706,-286,-458,-8264,-16,-38,42,3988,5,3,-1,5160,191,82,25,144,0,6,0,0,0,0,0,0,-32330,0,0,0,3376,0,232605,0
232716,-294,-482,-8332,-20,-34,44,3988,4,0,0,5168,188,80,25,144,0,6,0,0,0,0,0,0,-32331,0,0,0,3377,0,232612,0
232726,-296,-432,-8262,-20,-43,40,3988,3,-3,2,5168,192,64,25,144,0,6,0,0,0,0,0,0,-32331,0,0,0,3377,0,232615,0
232736,-264,-456,-8274,-15,-36,45,3988,-1,-7,0,5168,186,63,25,144,0,6,0,0,0,0,0,0,-32331,0,0,0,3376,0,232622,0
232746,-306,-464,-8282,-17,-40,40,3987,2,0,-2,5168,189,53,25,144,0,6,0,0,0,0,0,0,-32330,0,0,0,3377,0,232630,0
232756,-280,-458,-8280,-14,-37,36,3987,1,2,-2,5152,193,36,25,144,0,6,0,0,0,0,0,0,-32330,0,0,0,3375,0,232658,0
232766,-286,-462,-8286,-14,-41,39,3986,0,3,0,5168,193,49,25,144,0,6,0,0,0,0,0,0,-32331,0,0,0,3377,0,232664,0
232776,-284,-466,-8280,-12,-42,42,3988,4,-2,0,5160,194,50,25,144,0,6,0,0,0,0,0,0,-32330,0,0,0,3376,0,232672,0
232786,-296,-472,-8302,-14,-36,42,3989,4,2,-2,5168,192,61,25,144,0,6,0,0,0,0,0,0,-32331,0,0,0,3376,0,232674,0
232796,-306,-480,-8280,-16,-37,42,3986,-5,-1,0,5168,192,59,25,144,0,6,0,0,0,0,0,0,-32330,0,0,0,3376,0,232678,0
232806,-306,-490,-8286,-19,-39,39,3987,-3,-4,4,5160,188,30,25,144,0,6,0,0,0,0,0,0,-32331,0,0,0,3376,0,232689,0
232816,-266,-470,-8302,-15,-41,37,3987,4,-1,3,5168,191,69,25,144,0,6,0,0,0,0,0,0,-32331,0,0,0,3376,0,232705,0
232826,-264,-466,-8282,-15,-35,42,3986,-7,-2,-2,5160,191,67,25,144,0,6,0,0,0,0,0,0,-32330,0,0,0,3376,0,232709,0
232836,-256,-462,-8258,-16,-37,42,3987,4,3,6,5160,193,81,25,144,0,6,0,0,0,0,0,0,-32331,0,0,0,3377,0,232719,0
232846,-288,-452,-8344,-6,-49,43,3987,2,2,-1,5168,194,79,25,144,0,6,0,0,0,0,0,0,-32331,0,0,0,3376,0,232731,0
232856,-326,-452,-8386,-11,-37,40,3988,1,2,0,5152,191,105,25,144,0,6,0,0,0,0,0,0,-32330,0,0,0,3377,0,232741,0
232866,-276,-458,-8192,-18,-41,41,3986,-8,-6,0,5168,191,136,25,144,0,6,0,0,0,0,0,0,-32330,0,0,0,3376,0,232753,0
232876,-294,-464,-8196,-18,-44,42,3987,-11,2,-5,5152,192,123,25,144,0,6,0,0,0,0,0,0,-32330,0,0,0,3377,0,232760,0
232886,-310,-464,-8328,-17,-37,40,3988,5,1,1,5160,200,118,25,144,0,6,0,0,0,0,0,0,-32330,0,0,0,3376,0,232769,0
232896,-284,-450,-8346,-20,-45,43,3986,-2,3,-1,5160,202,103,25,144,0,6,0,0,0,0,0,0,-32330,0,0,0,3376,0,232783,0
232906,-242,-460,-8254,-12,-38,39,3987,1,5,-3,5160,203,122,25,144,0,6,0,0,0,0,0,0,-32330,0,0,0,3376,0,232792,0
232916,-252,-484,-8310,-16,-37,42,3988,0,4,2,5168,197,131,25,144,0,6,0,0,0,0,0,0,-32330,0,0,0,3376,0,232801,0
232926,-278,-460,-8296,-12,-50,40,3988,4,-1,3,5168,195,109,25,144,0,6,0,0,0,0,0,0,-32330,0,0,0,3376,0,232821,0
232936,-244,-506,-8290,-9,-33,42,3986,-2,1,-1,5168,194,91,25,144,0,6,0,0,0,0,0,0,-32330,0,0,0,3376,0,232830,0
232946,-332,-410,-8284,-16,-45,44,3987,-3,-2,1,5168,197,99,25,144,0,6,0,0,0,0,0,0,-32329,0,0,0,3376,0,232837,0
232956,-346,-462,-8318,-18,-35,37,3987,-5,-1,-1,5152,188,67,25,144,0,6,0,0,0,0,0,0,-32329,0,0,0,3376,0,232839,0
232966,-326,-412,-8276,-16,-39,38,3988,3,-3,-1,5168,186,84,25,144,0,6,0,0,0,0,0,0,-32331,0,0,0,3377,0,232904,0
232976,-294,-502,-8222,-20,-43,42,3988,0,2,-2,5160,196,86,25,144,0,6,0,0,0,0,0,0,-32330,0,0,0,3377,0,232915,0
232986,-252,-474,-8312,-16,-22,42,3988,-5,-1,-3,5168,199,116,25,144,0,6,0,0,0,0,0,0,-32330,0,0,0,3375,0,232920,0
232996,-200,-492,-8322,-16,-50,38,3988,3,-6,0,5176,199,118,25,144,0,6,0,0,0,0,0,0,-32329,0,0,0,3377,0,232935,0
233006,-262,-474,-8250,-12,-43,40,3987,-3,4,0,5160,192,100,25,144,0,6,0,0,0,0,0,0,-32330,0,0,0,3376,0,232937,0
233016,-260,-458,-8352,-11,-39,42,3988,0,1,0,5168,196,112,25,144,0,6,0,0,0,0,0,0,-32329,0,0,0,3376,0,232942,0
233026,-266,-468,-8294,-22,-56,41,3987,-9,2,-2,5168,198,98,25,144,0,6,0,0,0,0,0,0,-32330,0,0,0,3376,0,232942,0
233036,-280,-456,-8224,-15,-31,45,3987,-7,2,2,5168,198,113,25,144,0,6,0,0,0,0,0,0,-32330,0,0,0,3376,0,232942,0
233046,-294,-468,-8270,-18,-42,42,3989,-7,-4,3,5168,195,88,25,144,0,6,0,0,0,0,0,0,-32332,0,0,0,3376,0,232974,0
233056,-324,-482,-8294,-22,-30,44,3988,-4,-2,-1,5160,193,83,25,144,0,6,0,0,0,0,0,0,-32330,0,0,0,3377,0,232982,0
233066,-310,-448,-8284,-16,-36,42,3987,0,3,2,5160,194,90,25,144,0,6,0,0,0,0,0,0,-32329,0,0,0,3377,0,232987,0
233076,-332,-450,-8254,-18,-42,41,3986,0,-1,-1,5168,194,81,25,144,0,6,0,0,0,0,0,0,-32330,0,0,0,3377,0,232997,0
233086,-288,-470,-8302,-13,-31,33,3989,0,1,4,5160,192,85,25,144,0,6,0,0,0,0,0,0,-32331,0,0,0,3377,0,232997,0
233096,-288,-458,-8284,-14,-47,38,3988,5,-5,-1,5168,192,80,25,144,0,6,0,0,0,0,0,0,-32330,0,0,0,3376,0,233001,0
233106,-248,-480,-8276,-17,-37,39,3987,2,-3,-1,5168,192,98,25,144,0,6,0,0,0,0,0,0,-32331,0,0,0,3377,0,233012,0
233116,-260,-478,-8300,-17,-43,40,3986,2,5,2,5168,194,101,25,144,0,6,0,0,0,0,0,0,-32330,0,0,0,3376,0,233016,0
233126,-264,-500,-8328,-13,-49,37,3987,9,0,0,5160,199,97,25,144,0,6,0,0,0,0,0,0,-32330,0,0,0,3376,0,233024,0
233136,-290,-446,-8300,-19,-41,39,3988,7,-3,-2,5168,199,73,25,144,0,6,0,0,0,0,0,0,-32330,0,0,0,3376,0,233035,0
233146,-292,-470,-8286,-20,-46,38,3988,-5,0,1,5168,196,68,25,144,0,6,0,0,0,0,0,0,-32330,0,0,0,3376,0,233039,0
233156,-312,-474,-8284,-14,-37,38,3987,-6,-4,0,5152,196,73,25,144,0,6,0,0,0,0,0,0,-32330,0,0,0,3377,0,233056,0
233166,-284,-468,-8290,-18,-40,42,3987,6,4,7,5168,189,81,25,144,0,6,0,0,0,0,0,0,-32331,0,0,0,3376,0,233072,0
233176,-302,-472,-8274,-21,-39,42,3986,-10,-3,-3,5168,186,110,25,144,0,6,0,0,0,0,0,0,-32331,0,0,0,3377,0,233076,0
233186,-288,-476,-8280,-16,-42,39,3988,2,-1,0,5160,185,125,25,144,0,6,0,0,0,0,0,0,-32330,0,0,0,3377,0,233092,0
233196,-256,-476,-8302,-23,-46,41,3986,-9,-2,-1,5168,193,122,25,144,0,6,0,0,0,0,0,0,-32330,0,0,0,3376,0,233102,0
233206,-288,-482,-8294,-13,-36,41,3987,0,-1,2,5176,194,114,25,144,0,6,0,0,0,0,0,0,-32330,0,0,0,3376,0,233113,0
233216,-288,-474,-8310,-14,-37,39,3988,-3,0,0,5168,190,93,25,144,0,6,0,0,0,0,0,0,-32331,0,0,0,3376,0,233120,0
233226,-296,-448,-8302,-19,-41,42,3985,-6,-7,0,5168,192,75,25,144,0,6,0,0,0,0,0,0,-32332,0,0,0,3376,0,233128,0
233236,-284,-444,-8296,-13,-37,44,3989,4,5,0,5160,188,66,25,144,0,6,0,0,0,0,0,0,-32330,0,0,0,3375,0,233138,0
233246,-300,-474,-8266,-18,-50,41,3987,-5,-3,1,5168,190,79,25,144,0,6,0,0,0,0,0,0,-32330,0,0,0,3376,0,233146,0
233256,-292,-446,-8326,-19,-32,40,3988,2,0,-1,5152,184,73,25,144,0,6,0,0,0,0,0,0,-32330,0,0,0,3376,0,233152,0
233266,-268,-504,-8276,-21,-46,40,3988,0,5,3,5168,187,90,25,144,0,6,0,0,0,0,0,0,-32330,0,0,0,3377,0,233190,0
233276,-294,-466,-8280,-14,-39,38,3987,-4,-1,-1,5176,196,108,25,144,0,6,0,0,0,0,0,0,-32330,0,0,0,3377,0,233218,0
233286,-318,-452,-8302,-21,-39,37,3987,5,1,-1,5168,201,96,25,144,0,6,0,0,0,0,0,0,-32331,0,0,0,3376,0,233244,0
233296,-302,-454,-8286,-13,-47,42,3987,6,-1,0,5176,200,80,25,144,0,6,0,0,0,0,0,0,-32330,0,0,0,3377,0,233252,0
233306,-292,-468,-8298,-22,-38,43,3987,2,-1,-2,5160,188,61,25,144,0,6,0,0,0,0,0,0,-32331,0,0,0,3376,0,233268,0
233316,-274,-486,-8282,-14,-50,42,3987,-2,-1,4,5168,186,55,25,144,0,6,0,0,0,0,0,0,-32331,0,0,0,3377,0,233268,0
233326,-282,-476,-8304,-14,-39,38,3988,-1,1,2,5160,195,90,25,144,0,6,0,0,0,0,0,0,-32331,0,0,0,3377,0,233268,0
233336,-288,-474,-8242,-18,-47,40,3987,6,-1,0,5168,197,102,25,144,0,6,0,0,0,0,0,0,-32331,0,0,0,3377,0,233268,0
233346,-288,-448,-8292,-15,-39,40,3987,-2,2,0,5168,198,120,25,144,0,6,0,0,0,0,0,0,-32330,0,0,0,3377,0,233268,0
233356,-300,-472,-8314,-17,-40,39,3988,-4,5,-1,5160,198,152,25,144,0,6,0,0,0,0,0,0,-32330,0,0,0,3376,0,233268,0
233366,-290,-484,-8260,-15,-45,41,3987,0,-5,2,5168,199,129,25,144,0,6,0,0,0,0,0,0,-32330,0,0,0,3376,0,233290,0
233376,-274,-460,-8232,-18,-36,44,3989,0,8,-1,5168,198,115,25,144,0,6,0,0,0,0,0,0,-32330,0,0,0,3376,0,233293,0
233386,-296,-504,-8386,-15,-30,37,3989,13,-1,0,5168,192,49,25,144,0,6,0,0,0,0,0,0,-32330,0,0,0,3376,0,233296,0
233396,-302,-468,-8342,-16,-45,37,3987,-2,4,2,5176,188,38,25,144,0,6,0,0,0,0,0,0,-32330,0,0,0,3376,0,233302,0
233406,-338,-494,-8150,-17,-39,41,3987,0,-1,1,5160,186,42,25,144,0,6,0,0,0,0,0,0,-32331,0,0,0,3377,0,233302,0
233416,-184,-268,-7314,-37,-93,40,3987,-3,1,0,5168,188,59,25,144,0,6,0,0,0,0,0,0,-32330,0,0,0,3376,0,233304,0
233426,-546,-282,-9306,-28,40,38,3987,1,0,-2,5168,191,86,25,144,0,6,0,0,0,0,0,0,-32330,0,0,0,3377,0,233312,0
233436,-508,-726,-7912,0,-57,39,3986,-9,0,-2,5168,193,72,25,144,0,6,0,0,0,0,0,0,-32331,0,0,0,3377,0,233319,0
233446,454,-180,-8426,-52,-89,48,3988,2,1,0,5168,193,69,25,144,0,6,0,0,0,0,0,0,-32330,0,0,0,3375,0,233347,0
233456,-676,-702,-7722,-10,-24,29,3988,5,-1,-2,5152,193,61,25,144,0,6,0,0,0,0,0,0,-32330,0,0,0,3376,0,233354,0
233466,-284,-386,-8252,-20,92,33,3988,1,-1,0,5168,191,70,25,144,0,6,0,0,0,0,0,0,-32330,0,0,0,3377,0,233361,0
233476,320,-256,-8014,-36,41,29,3990,6,4,0,5160,193,61,25,144,0,6,0,0,0,0,0,0,-32330,0,0,0,3376,0,233368,0
233486,-280,-370,-9032,-22,-87,58,3988,-3,-4,1,5160,194,57,25,144,0,6,0,0,0,0,0,0,-32330,0,0,0,3376,0,233371,0
233496,-102,-318,-8440,-31,-58,45,3988,8,-4,2,5176,196,55,25,144,0,6,0,0,0,0,0,0,-32331,0,0,0,3377,0,233387,0
233506,-492,-538,-7866,-4,63,40,3987,0,3,-7,5160,198,75,25,144,0,6,0,0,0,0,0,0,-32331,0,0,0,3377,0,233392,0
233516,-348,-380,-8256,-14,-95,37,3989,2,2,-4,5168,199,97,25,144,0,6,0,0,0,0,0,0,-32330,0,0,0,3376,0,233399,0
233526,-326,-588,-8470,-10,-60,38,3988,-2,-2,-7,5160,197,93,25,144,0,6,0,0,0,0,0,0,-32330,0,0,0,3377,0,233410,0
233536,-390,-490,-8392,-24,4,38,3987,-1,1,-1,5168,195,67,25,144,0,6,0,0,0,0,0,0,-32330,0,0,0,3376,0,233423,0
233546,-98,-496,-8072,-15,-74,45,3987,0,-1,4,5168,190,63,25,144,0,6,0,0,0,0,0,0,-32329,0,0,0,3376,0,233451,0
233556,-290,-602,-8618,1,8,40,3988,0,-2,-2,5152,187,86,25,144,0,6,0,0,0,0,0,0,-32330,0,0,0,3376,0,233462,0
233566,-364,-324,-8192,-20,-34,36,3987,-7,-2,1,5168,191,90,25,144,0,6,0,0,0,0,0,0,-32330,0,0,0,3377,0,233474,0
233576,-314,-408,-7914,-25,-104,45,3989,6,-1,-3,5160,196,84,25,144,0,6,0,0,0,0,0,0,-32329,0,0,0,3376,0,233477,0
233586,-348,-496,-8370,-9,27,32,3987,-10,1,1,5168,204,80,25,144,0,6,0,0,0,0,0,0,-32330,0,0,0,3376,0,233482,0
233596,-262,-438,-8334,-13,-67,37,3989,10,1,-1,5168,197,68,25,144,0,6,0,0,0,0,0,0,-32330,0,0,0,3376,0,233499,0
233606,-274,-372,-8358,-39,-82,43,3987,0,6,1,5176,190,50,25,144,0,6,0,0,0,0,0,0,-32330,0,0,0,3376,0,233506,0
233616,-316,-450,-8270,-18,20,36,3987,-4,0,-4,5168,184,35,25,144,0,6,0,0,0,0,0,0,-32330,0,0,0,3375,0,233519,0
233626,-194,-370,-8500,-6,-71,41,3987,-1,0,0,5160,187,13,25,144,0,6,0,0,0,0,0,0,-32331,0,0,0,3376,0,233527,0
233636,-402,-526,-8226,-15,-56,39,3988,3,7,-2,5160,192,13,25,144,0,6,0,0,0,0,0,0,-32329,0,0,0,3376,0,233534,0
233646,-342,-480,-8242,-17,23,36,3988,4,1,1,5160,191,17,25,144,0,6,0,0,0,0,0,0,-32330,0,0,0,3376,0,233541,0
233656,-232,-394,-8190,-16,-95,44,3987,-1,-1,-1,5168,195,67,25,144,0,6,0,0,0,0,0,0,-32331,0,0,0,3377,0,233549,0
233666,-386,-472,-8226,-11,-32,39,3987,-3,-1,0,5160,196,93,25,144,0,6,0,0,0,0,0,0,-32330,0,0,0,3377,0,233557,0
233676,-240,-494,-8416,-10,-30,37,3987,-6,-4,2,5160,197,101,25,144,0,6,0,0,0,0,0,0,-32331,0,0,0,3377,0,233563,0
233686,-216,-516,-8280,-23,-78,41,3989,1,0,0,5160,195,87,25,144,0,6,0,0,0,0,0,0,-32331,0,0,0,3376,0,233573,0
233696,-298,-452,-8144,-16,-9,37,3986,-5,-3,-1,5168,190,68,25,144,0,6,0,0,0,0,0,0,-32331,0,0,0,3376,0,233581,0
233706,-234,-500,-8400,-13,-39,36,3987,-2,-2,0,5152,194,112,25,144,0,6,0,0,0,0,0,0,-32329,0,0,0,3376,0,233589,0
233716,-286,-448,-8288,-17,-48,37,3988,9,1,-2,5168,191,113,25,144,0,6,0,0,0,0,0,0,-32330,0,0,0,3376,0,233602,0
233726,-318,-460,-8280,-17,-18,36,3988,3,0,-3,5168,193,113,25,144,0,6,0,0,0,0,0,0,-32332,0,0,0,3376,0,233615,0
233736,-260,-492,-8244,-16,-52,38,3988,6,6,-1,5160,191,66,25,144,0,6,0,0,0,0,0,0,-32331,0,0,0,3377,0,233623,0
233746,-278,-444,-8252,-14,-36,38,3987,-3,-3,1,5168,186,69,25,144,0,6,0,0,0,0,0,0,-32331,0,0,0,3376,0,233633,0
233756,-286,-476,-8320,-17,-33,39,3989,4,1,-4,5152,191,59,25,144,0,6,0,0,0,0,0,0,-32331,0,0,0,3376,0,233639,0
233766,-256,-446,-8336,-17,-51,44,3987,1,4,1,5160,198,109,25,144,0,6,0,0,0,0,0,0,-32330,0,0,0,3377,0,233649,0
233776,-306,-456,-8230,-18,-32,38,3987,0,1,0,5160,202,141,25,144,0,6,0,0,0,0,0,0,-32331,0,0,0,3375,0,233672,0
233786,-272,-470,-8364,-16,-33,42,3987,-4,3,-3,5168,200,117,25,144,0,6,0,0,0,0,0,0,-32331,0,0,0,3376,0,233677,0
233796,-282,-466,-8274,-19,-59,39,3988,6,4,-3,5168,194,81,25,144,0,6,0,0,0,0,0,0,-32330,0,0,0,3376,0,233700,0
233806,-320,-484,-8276,-15,-34,41,3987,-1,7,0,5176,192,51,25,144,0,6,0,0,0,0,0,0,-32331,0,0,0,3376,0,233710,0
233816,-284,-498,-8282,-15,-41,36,3986,-3,4,3,5168,189,39,25,144,0,6,0,0,0,0,0,0,-32331,0,0,0,3376,0,233716,0
233826,-268,-444,-8316,-19,-39,46,3987,3,3,5,5160,191,39,25,144,0,6,0,0,0,0,0,0,-32332,0,0,0,3376,0,233731,0
233836,-260,-474,-8230,-18,-44,37,3988,9,1,0,5160,192,33,25,144,0,6,0,0,0,0,0,0,-32332,0,0,0,3375,0,233735,0
233846,-284,-462,-8320,-18,-44,42,3988,1,3,-1,5160,191,52,25,144,0,6,0,0,0,0,0,0,-32330,0,0,0,3376,0,233747,0
233856,-264,-460,-8330,-19,-33,43,3989,15,1,2,5160,191,76,25,144,0,6,0,0,0,0,0,0,-32330,0,0,0,3376,0,233754,0
233866,-302,-456,-8288,-16,-50,38,3987,-1,-3,1,5168,196,91,25,144,0,6,0,0,0,0,0,0,-32331,0,0,0,3376,0,233759,0
233876,-290,-478,-8278,-16,-29,43,3986,-2,2,3,5160,191,42,25,144,0,6,0,0,0,0,0,0,-32331,0,0,0,3376,0,233769,0
233886,-258,-460,-8314,-14,-34,36,3986,-10,4,0,5160,188,24,25,144,0,6,0,0,0,0,0,0,-32332,0,0,0,3376,0,233774,0
233896,-290,-444,-8260,-19,-46,41,3988,1,6,7,5168,189,36,25,144,0,6,0,0,0,0,0,0,-32331,0,0,0,3375,0,233785,0
233906,-264,-438,-8268,-18,-36,36,3988,2,-4,1,5160,187,37,25,144,0,6,0,0,0,0,0,0,-32332,0,0,0,3376,0,233790,0
233916,-308,-450,-8364,-14,-41,37,3988,1,-2,4,5168,186,24,25,144,0,6,0,0,0,0,0,0,-32331,0,0,0,3377,0,233813,0
233926,-266,-458,-8308,-16,-50,37,3987,0,-1,11,5160,191,10,25,144,0,6,0,0,0,0,0,0,-32330,0,0,0,3376,0,233827,0
233936,-294,-458,-8244,-11,-42,40,3987,-6,4,1,5152,188,34,25,144,0,6,0,0,0,0,0,0,-32330,0,0,0,3376,0,233867,0
233946,-278,-430,-8328,-18,-33,41,3988,0,1,0,5168,192,92,25,144,0,6,0,0,0,0,0,0,-32331,0,0,0,3376,0,233879,0
233956,-250,-484,-8296,-19,-50,43,3988,8,-5,0,5168,193,81,25,144,0,6,0,0,0,0,0,0,-32330,0,0,0,3377,0,233886,0
233966,-256,-450,-8322,-16,-43,41,3988,3,-2,-2,5168,199,83,25,144,0,6,0,0,0,0,0,0,-32330,0,0,0,3376,0,233897,0
233976,-296,-438,-8280,-16,-33,40,3988,3,-2,1,5160,198,57,25,144,0,6,0,0,0,0,0,0,-32331,0,0,0,3376,0,233909,0
233986,-268,-458,-8310,-13,-32,41,3987,-17,-1,-2,5160,198,54,25,144,0,6,0,0,0,0,0,0,-32330,0,0,0,3376,0,233909,0
233996,-294,-466,-8280,-19,-45,42,3987,0,-4,0,5168,191,42,25,144,0,6,0,0,0,0,0,0,-32330,0,0,0,3377,0,233909,0
234006,-304,-438,-8236,-13,-36,44,3988,-1,-5,4,5160,192,41,25,144,0,6,0,0,0,0,0,0,-32331,0,0,0,3376,0,233925,0
234016,-278,-448,-8306,-14,-38,41,3988,0,0,0,5168,198,83,25,144,0,6,0,0,0,0,0,0,-32331,0,0,0,3377,0,233927,0
234026,-258,-466,-8304,-16,-43,35,3988,2,6,0,5160,201,59,25,144,0,6,0,0,0,0,0,0,-32330,0,0,0,3377,0,233934,0
234036,-252,-442,-8294,-20,-38,36,3987,0,2,-1,5160,196,50,25,144,0,6,0,0,0,0,0,0,-32332,0,0,0,3376,0,233938,0
234046,-276,-462,-8312,-22,-46,38,3987,8,-3,0,5168,187,25,25,144,0,6,0,0,0,0,0,0,-32331,0,0,0,3376,0,233946,0
234056,-304,-460,-8272,-16,-31,41,3988,4,-2,2,5160,185,10,25,144,0,6,0,0,0,0,0,0,-32330,0,0,0,3376,0,233955,0
234066,-250,-464,-8298,-14,-40,40,3989,9,3,0,5168,193,65,25,144,0,6,0,0,0,0,0,0,-32330,0,0,0,3376,0,233964,0
234076,-302,-462,-8286,-17,-46,37,3987,-5,-2,2,5152,198,76,25,144,0,6,0,0,0,0,0,0,-32330,0,0,0,3377,0,233973,0
234086,-286,-430,-8284,-13,-35,41,3986,-13,-2,-4,5168,199,60,25,144,0,6,0,0,0,0,0,0,-32330,0,0,0,3377,0,233977,0
234096,-306,-458,-8286,-14,-47,40,3988,2,-6,0,5168,194,37,25,144,0,6,0,0,0,0,0,0,-32330,0,0,0,3375,0,233985,0
234106,-292,-476,-8266,-17,-42,38,3987,-2,-2,2,5176,192,11,25,144,0,6,0,0,0,0,0,0,-32330,0,0,0,3376,0,233992,0
234116,-296,-490,-8296,-13,-42,36,3987,-2,0,0,5168,190,14,25,144,0,6,0,0,0,0,0,0,-32331,0,0,0,3377,0,234000,0
234126,-286,-460,-8306,-13,-46,38,3987,-2,-4,2,5160,191,6,25,144,0,6,0,0,0,0,0,0,-32330,0,0,0,3377,0,234014,0
234136,-306,-428,-8304,-14,-40,41,3987,-5,0,6,5168,189,9,25,144,0,6,0,0,0,0,0,0,-32331,0,0,0,3375,0,234021,0
234146,-254,-488,-8276,-18,-37,41,3987,1,-7,0,5168,185,22,25,144,0,6,0,0,0,0,0,0,-32331,0,0,0,3376,0,234028,0
234156,-298,-466,-8288,-16,-44,39,3988,0,-2,1,5160,189,61,25,144,0,6,0,0,0,0,0,0,-32331,0,0,0,3376,0,234046,0
234166,-276,-492,-8286,-18,-38,43,3987,4,5,3,5168,197,93,25,144,0,6,0,0,0,0,0,0,-32331,0,0,0,3376,0,234051,0
234176,-284,-482,-8278,-15,-44,43,3988,-2,-1,8,5160,198,70,25,144,0,6,0,0,0,0,0,0,-32331,0,0,0,3376,0,234060,0
234186,-276,-470,-8304,-12,-45,35,3987,1,-1,3,5168,198,81,25,144,0,6,0,0,0,0,0,0,-32331,0,0,0,3376,0,234134,0
234196,-286,-464,-8284,-15,-39,41,3987,-1,2,4,5168,196,85,25,144,0,6,0,0,0,0,0,0,-32330,0,0,0,3376,0,234142,0
234206,-314,-456,-8298,-7,-30,42,3987,-3,-1,1,5168,191,73,25,144,0,6,0,0,0,0,0,0,-32330,0,0,0,3376,0,234152,0
234216,-372,-180,-8548,-19,133,39,3987,0,6,4,5168,185,36,25,144,0,6,0,0,0,0,0,0,-32330,0,0,0,3376,0,234167,0
234226,-232,-350,-8266,3,122,37,3987,-8,-4,0,5168,185,-12,25,144,0,6,0,0,0,0,0,0,-32330,0,0,0,3376,0,234173,0
234236,-398,-400,-8300,0,108,27,3987,-6,-5,-2,5160,185,23,25,144,0,6,0,0,0,0,0,0,-32331,0,0,0,3376,0,234173,0
234246,-338,-484,-8160,4,126,28,3989,10,3,-2,5168,188,62,25,144,0,6,0,0,0,0,0,0,-32330,0,0,0,3376,0,234173,0
234256,-122,-468,-8342,-5,98,30,3987,-9,2,-4,5160,192,103,25,144,0,6,0,0,0,0,0,0,-32331,0,0,0,3376,0,234173,0
234266,-186,-416,-8278,-20,20,37,3988,1,-3,-2,5168,200,87,25,144,0,6,0,0,0,0,0,0,-32331,0,0,0,3376,0,234182,0
234276,-164,-504,-8236,-24,-143,42,3988,10,5,0,5168,197,70,25,144,0,6,0,0,0,0,0,0,-32331,0,0,0,3376,0,234195,0
234286,-214,-426,-8258,-33,-204,48,3987,-6,0,0,5168,193,46,25,144,0,6,0,0,0,0,0,0,-32331,0,0,0,3377,0,234197,0
234296,-238,-454,-8346,-31,-202,48,3988,-3,2,-3,5176,191,52,25,144,0,6,0,0,0,0,0,0,-32330,0,0,0,3376,0,234203,0
234306,-280,-430,-8288,-30,-161,47,3988,8,-1,-1,5176,186,47,25,144,0,6,0,0,0,0,0,0,-32330,0,0,0,3376,0,234208,0
234316,-310,-454,-8304,-12,-53,34,3988,1,7,-1,5168,187,66,25,144,0,6,0,0,0,0,0,0,-32330,0,0,0,3376,0,234224,0
234326,-218,-456,-8310,-4,50,41,3988,1,3,0,5168,186,52,25,144,0,6,0,0,0,0,0,0,-32330,0,0,0,3376,0,234232,0
234336,-334,-462,-8384,12,163,33,3987,-4,0,0,5160,186,55,25,144,0,6,0,0,0,0,0,0,-32331,0,0,0,3376,0,234247,0
234346,-314,-522,-8206,15,227,30,3986,0,-5,1,5160,188,86,25,144,0,6,0,0,0,0,0,0,-32330,0,0,0,3376,0,234257,0
234356,-150,-412,-8436,12,297,30,3987,1,0,-1,5168,188,81,25,144,0,6,0,0,0,0,0,0,-32331,0,0,0,3376,0,234262,0
234366,-178,-474,-8296,9,245,31,3987,0,-4,-2,5168,185,68,25,144,0,6,0,0,0,0,0,0,-32331,0,0,0,3376,0,234272,0
234376,-244,-468,-8176,-5,1,50,3986,0,-2,3,5168,181,20,25,144,0,6,0,0,0,0,0,0,-32331,0,0,0,3376,0,234286,0
234386,-286,-462,-8150,-23,-140,60,3987,-1,0,-2,5168,176,13,25,144,0,6,0,0,0,0,0,0,-32331,0,0,0,3376,0,234293,0
234396,-252,-486,-8228,-31,-220,65,3987,-5,1,-1,5160,179,22,25,144,0,6,0,0,0,0,0,0,-32330,0,0,0,3376,0,234305,0
234406,-306,-474,-8362,-29,-167,68,3989,9,4,1,5160,179,40,25,144,0,6,0,0,0,0,0,0,-32330,0,0,0,3377,0,234308,0
234416,-342,-460,-8344,-11,3,77,3988,1,-3,3,5168,190,40,25,144,0,6,0,0,0,0,0,0,-32330,0,0,0,3376,0,234313,0
234426,-384,-400,-8316,-2,77,94,3987,-1,-3,2,5160,192,61,25,144,0,6,0,0,0,0,0,0,-32330,0,0,0,3376,0,234323,0
234436,-300,-448,-8354,-4,125,115,3987,-1,-2,1,5152,199,89,25,144,0,6,0,0,0,0,0,0,-32331,0,0,0,3376,0,234332,0
234446,-246,-450,-8262,-3,99,125,3988,7,7,-1,5160,202,143,25,144,0,6,0,0,0,0,0,0,-32330,0,0,0,3376,0,234346,0
234456,-452,-464,-8236,-6,-33,159,3988,1,4,-3,5160,196,168,25,144,0,6,0,0,0,0,0,0,-32330,0,0,0,3376,0,234351,0
234466,-336,-442,-8226,-15,-107,193,3988,5,6,-1,5168,198,155,25,144,0,6,0,0,0,0,0,0,-32330,0,0,0,3377,0,234361,0
234476,-126,-446,-8316,-16,-90,184,3988,7,0,0,5152,188,103,25,144,0,6,0,0,0,0,0,0,-32330,0,0,0,3376,0,234366,0
234486,-316,-484,-8202,-15,-98,206,3988,-7,4,-4,5152,192,92,25,144,0,6,0,0,0,0,0,0,-32332,0,0,0,3376,0,234377,0
234496,-284,-430,-8366,-12,-53,220,3987,-2,-4,0,5168,190,54,25,144,0,6,0,0,0,0,0,0,-32330,0,0,0,3375,0,234382,0
234506,-358,-402,-8176,-5,-15,243,3987,-2,-3,-1,5168,194,49,25,144,0,6,0,0,0,0,0,0,-32330,0,0,0,3375,0,234389,0
234516,-746,-558,-8204,-9,-45,276,3987,-5,3,0,5168,187,31,25,144,0,6,0,0,0,0,0,0,-32331,0,0,0,3376,0,234405,0
234526,-314,-462,-8356,-17,-30,314,3986,-10,-4,2,5168,186,24,25,144,0,6,0,0,0,0,0,0,-32330,0,0,0,3377,0,234414,0
234536,-224,-576,-8396,4,-4,291,3987,0,-5,2,5160,183,37,25,144,0,6,0,0,0,0,0,0,-32331,0,0,0,3376,0,234422,0
234546,-180,-574,-8404,-21,80,280,3989,12,0,-3,5168,183,60,25,144,0,6,0,0,0,0,0,0,-32331,0,0,0,3376,0,234442,0
234556,142,-524,-8496,-11,64,263,3988,1,4,-2,5160,184,70,25,144,0,6,0,0,0,0,0,0,-32330,0,0,0,3376,0,234448,0
234566,-58,-554,-8236,-3,17,243,3988,5,3,-2,5168,187,83,25,144,0,6,0,0,0,0,0,0,-32330,0,0,0,3376,0,234451,0
234576,-336,-504,-8246,-6,-71,274,3987,1,-4,2,5160,188,68,25,144,0,6,0,0,0,0,0,0,-32331,0,0,0,3376,0,234459,0
234586,-410,-438,-8274,-13,-165,294,3987,1,-3,1,5160,186,65,25,144,0,6,0,0,0,0,0,0,-32331,0,0,0,3376,0,234503,0
234596,-490,-444,-8350,-27,-103,341,3989,5,11,-1,5168,188,51,25,144,0,6,0,0,0,0,0,0,-32330,0,0,0,3376,0,234510,0
234606,-630,-520,-8150,4,-80,352,3988,2,1,2,5152,190,82,25,144,0,6,0,0,0,0,0,0,-32330,0,0,0,3375,0,234516,0
234616,-412,-576,-8512,9,31,367,3989,9,4,0,5168,189,59,25,144,0,6,0,0,0,0,0,0,-32330,0,0,0,3376,0,234526,0
234626,-714,-708,-8070,22,78,354,3987,-6,-2,2,5160,186,58,25,144,0,6,0,0,0,0,0,0,-32330,0,0,0,3376,0,234553,0
234636,144,-568,-8606,12,130,350,3986,4,-4,-2,5160,186,67,25,144,0,6,0,0,0,0,0,0,-32330,0,0,0,3376,0,234555,0
234646,130,-558,-8114,17,69,316,3988,3,0,2,5168,189,63,25,144,0,6,0,0,0,0,0,0,-32330,0,0,0,3376,0,234560,0
234656,196,-506,-8390,-11,58,254,3987,-6,-4,-1,5160,187,67,25,144,0,6,0,0,0,0,0,0,-32330,0,0,0,3375,0,234572,0
234666,228,-490,-8270,-21,-11,226,3986,-11,-7,2,5168,184,31,25,144,0,6,0,0,0,0,0,0,-32331,0,0,0,3376,0,234577,0
234676,26,-558,-8320,-21,-151,166,3987,5,-5,1,5160,184,34,25,144,0,6,0,0,0,0,0,0,-32330,0,0,0,3376,0,234587,0
234686,90,-568,-8382,-23,-117,108,3988,1,4,-3,5160,182,44,25,144,0,6,0,0,0,0,0,0,-32330,0,0,0,3376,0,234592,0
234696,-44,-548,-8242,-19,-89,68,3986,-7,-4,-3,5168,181,43,25,144,0,6,0,0,0,0,0,0,-32330,0,0,0,3376,0,234602,0
234706,-144,-488,-8296,-15,-64,39,3988,4,4,2,5168,180,39,25,144,0,6,0,0,0,0,0,0,-32330,0,0,0,3376,0,234607,0
234716,-188,-476,-8280,-14,-37,40,3987,0,2,-5,5168,180,36,25,144,0,6,0,0,0,0,0,0,-32330,0,0,0,3376,0,234617,0
234726,-192,-508,-8286,-18,-44,41,3987,-1,3,2,5168,179,26,25,144,0,6,0,0,0,0,0,0,-32330,0,0,0,3377,0,234622,0
234736,-220,-460,-8302,-19,-52,44,3988,4,0,0,5168,179,33,25,144,0,6,0,0,0,0,0,0,-32330,0,0,0,3376,0,234632,0
234746,-202,-436,-8310,-15,-56,38,3987,5,7,-1,5168,179,44,25,144,0,6,0,0,0,0,0,0,-32330,0,0,0,3376,0,234652,0
234756,-202,-468,-8320,-15,-58,41,3988,-4,-4,0,5168,181,46,25,144,0,6,0,0,0,0,0,0,-32330,0,0,0,3377,0,234660,0
234766,-234,-470,-8262,-19,-49,41,3987,8,5,0,5168,182,29,25,144,0,6,0,0,0,0,0,0,-32330,0,0,0,3377,0,234662,0
234776,-226,-476,-8270,-12,-27,42,3986,-6,-1,-1,5168,181,44,25,144,0,6,0,0,0,0,0,0,-32330,0,0,0,3376,0,234667,0
234786,-216,-460,-8244,-16,-25,47,3987,-4,2,-3,5168,180,43,25,144,0,6,0,0,0,0,0,0,-32330,0,0,0,3376,0,234677,0
234796,-170,-464,-8284,-14,-41,47,3987,1,5,-2,5168,182,49,25,144,0,6,0,0,0,0,0,0,-32330,0,0,0,3376,0,234682,0
234806,-196,-464,-8258,-19,-46,48,3986,-4,-1,0,5168,184,47,25,144,0,6,0,0,0,0,0,0,-32330,0,0,0,3376,0,234690,0
234816,-230,-478,-8202,-19,-60,42,3987,-4,1,-3,5168,184,26,25,144,0,6,0,0,0,0,0,0,-32329,0,0,0,3376,0,234699,0
234826,-198,-472,-8416,-19,-54,42,3988,0,3,-1,5152,180,33,25,144,0,6,0,0,0,0,0,0,-32331,0,0,0,3375,0,234721,0
234836,-222,-500,-8226,-20,-50,39,3988,0,-3,0,5160,181,58,25,144,0,6,0,0,0,0,0,0,-32330,0,0,0,3375,0,234726,0
234846,-216,-428,-8416,-15,-46,42,3986,-6,4,2,5160,184,88,25,144,0,6,0,0,0,0,0,0,-32329,0,0,0,3376,0,234736,0
234856,-258,-484,-8300,-23,-16,38,3988,8,-6,1,5152,187,85,25,144,0,6,0,0,0,0,0,0,-32329,0,0,0,3376,0,234765,0
234866,-180,-472,-8304,-9,-26,40,3986,-10,-1,-2,5168,185,52,25,144,0,6,0,0,0,0,0,0,-32331,0,0,0,3376,0,234772,0
234876,-242,-478,-8340,-18,-42,45,3986,-8,3,0,5160,182,30,25,144,0,6,0,0,0,0,0,0,-32330,0,0,0,3376,0,234775,0
234886,-248,-458,-8222,-16,-54,52,3988,6,2,0,5168,183,40,25,144,0,6,0,0,0,0,0,0,-32330,0,0,0,3376,0,234780,0
234896,-202,-468,-8348,-13,-45,62,3989,13,1,0,5176,186,55,25,144,0,6,0,0,0,0,0,0,-32330,0,0,0,3376,0,234790,0
234906,-298,-490,-8240,-10,-41,65,3988,7,5,-1,5160,192,65,25,144,0,6,0,0,0,0,0,0,-32331,0,0,0,3376,0,234794,0
234916,-410,-396,-8292,-13,-43,106,3988,9,0,7,5168,188,51,25,144,0,6,0,0,0,0,0,0,-32331,0,0,0,3376,0,234804,0
234926,-584,-410,-8300,-13,-50,149,3987,-7,0,0,5160,186,35,25,144,0,6,0,0,0,0,0,0,-32331,0,0,0,3375,0,234812,0
234936,-686,-382,-8206,-11,-105,257,3986,-2,1,2,5168,183,34,25,144,0,6,0,0,0,0,0,0,-32330,0,0,0,3376,0,234818,0
234946,-482,-424,-8276,-2,-46,281,3987,5,4,-2,5168,185,49,25,144,0,6,0,0,0,0,0,0,-32329,0,0,0,3376,0,234832,0
234956,-128,-532,-8442,0,78,284,3987,-2,1,0,5176,187,82,25,144,0,6,0,0,0,0,0,0,-32330,0,0,0,3376,0,234839,0
234966,-54,-768,-8250,1,154,221,3988,4,2,0,5168,187,86,25,144,0,6,0,0,0,0,0,0,-32331,0,0,0,3376,0,234868,0
234976,590,-606,-8484,-5,108,116,3988,-3,-4,-2,5168,189,125,25,144,0,6,0,0,0,0,0,0,-32331,0,0,0,3376,0,234871,0
234986,402,-598,-8330,-13,29,34,3987,1,1,-1,5160,183,90,25,144,0,6,0,0,0,0,0,0,-32330,0,0,0,3377,0,234876,0
234996,-144,-512,-8236,-28,-219,48,3988,2,0,-2,5168,183,85,25,144,0,6,0,0,0,0,0,0,-32329,0,0,0,3375,0,234885,0
235006,-68,-590,-8326,-39,-320,50,3988,-3,-1,0,5160,183,65,25,144,0,6,0,0,0,0,0,0,-32330,0,0,0,3375,0,234890,0
235016,-280,-550,-8314,-30,-230,52,3987,-5,-1,-2,5160,188,52,25,144,0,6,0,0,0,0,0,0,-32330,0,0,0,3376,0,234899,0
235026,-260,-498,-8354,-14,-62,41,3987,-4,2,-2,5160,190,48,25,144,0,6,0,0,0,0,0,0,-32331,0,0,0,3376,0,234909,0
235036,-352,-410,-8304,-6,126,31,3989,7,-1,3,5160,194,53,25,144,0,6,0,0,0,0,0,0,-32330,0,0,0,3375,0,234931,0
235046,-280,-422,-8236,-3,136,32,3988,-1,-6,-4,5160,195,93,25,144,0,6,0,0,0,0,0,0,-32330,0,0,0,3376,0,234935,0
235056,-200,-446,-8234,-13,-4,34,3987,-4,-2,-2,5160,197,112,25,144,0,6,0,0,0,0,0,0,-32330,0,0,0,3376,0,234945,0
235066,-176,-474,-8264,-23,-102,38,3988,-1,1,-2,5168,192,79,25,144,0,6,0,0,0,0,0,0,-32330,0,0,0,3376,0,234966,0
235076,-182,-508,-8312,-26,-120,44,3988,3,5,4,5160,189,45,25,144,0,6,0,0,0,0,0,0,-32330,0,0,0,3376,0,234975,0
235086,-226,-436,-8312,-18,-58,41,3988,6,1,0,5160,188,33,25,144,0,6,0,0,0,0,0,0,-32330,0,0,0,3377,0,234977,0
235096,-246,-476,-8334,-9,43,37,3988,-3,1,1,5168,191,31,25,144,0,6,0,0,0,0,0,0,-32330,0,0,0,3376,0,234984,0
235106,-228,-528,-8298,-11,51,39,3986,-8,-5,0,5160,192,38,25,144,0,6,0,0,0,0,0,0,-32331,0,0,0,3376,0,234989,0
235116,-266,-520,-8256,-18,-41,59,3988,1,4,5,5168,190,38,25,144,0,6,0,0,0,0,0,0,-32331,0,0,0,3376,0,234998,0
235126,-318,-534,-8246,-23,-107,81,3987,6,0,-1,5160,183,47,25,144,0,6,0,0,0,0,0,0,-32330,0,0,0,3377,0,235014,0
235136,-400,-558,-8282,-16,-144,124,3987,-9,1,-2,5160,182,73,25,144,0,6,0,0,0,0,0,0,-32332,0,0,0,3376,0,235019,0
235146,-242,-524,-8350,-12,-66,118,3988,3,7,4,5168,186,77,25,144,0,6,0,0,0,0,0,0,-32331,0,0,0,3376,0,235028,0
235156,-106,-308,-8324,-10,76,67,3987,3,3,-2,5160,189,87,25,144,0,6,0,0,0,0,0,0,-32331,0,0,0,3376,0,235044,0
235166,-176,-348,-8262,-11,56,74,3987,-2,3,-1,5160,188,79,25,144,0,6,0,0,0,0,0,0,-32331,0,0,0,3376,0,235049,0
235176,-210,-444,-8262,-17,-82,91,3988,-2,1,-2,5160,187,104,25,144,0,6,0,0,0,0,0,0,-32330,0,0,0,3376,0,235072,0
235186,-156,-486,-8272,-21,-137,96,3986,-1,4,1,5168,189,125,25,144,0,6,0,0,0,0,0,0,-32331,0,0,0,3375,0,235078,0
235196,-90,-524,-8338,-14,-48,70,3987,-6,-3,-1,5168,189,113,25,144,0,6,0,0,0,0,0,0,-32331,0,0,0,3376,0,235088,0
235206,-94,-502,-8050,-24,94,41,3987,-10,-5,-1,5152,190,103,25,144,0,6,0,0,0,0,0,0,-32331,0,0,0,3376,0,235094,0
235216,-236,-454,-8496,18,38,29,3987,-6,3,1,5160,187,108,25,144,0,6,0,0,0,0,0,0,-32331,0,0,0,3376,0,235104,0
235226,-162,-462,-7920,-23,47,35,3987,-4,-3,-2,5160,182,123,25,144,0,6,0,0,0,0,0,0,-32331,0,0,0,3376,0,235108,0
235236,-200,-490,-8288,-11,-35,41,3988,0,0,4,5160,189,151,25,144,0,6,0,0,0,0,0,0,-32330,0,0,0,3376,0,235142,0
235246,-304,-496,-8254,-24,-32,46,3986,-11,-4,1,5160,192,160,25,144,0,6,0,0,0,0,0,0,-32330,0,0,0,3376,0,235150,0
235256,-378,-476,-8234,-25,-62,82,3986,6,-5,0,5152,192,133,25,144,0,6,0,0,0,0,0,0,-32331,0,0,0,3376,0,235184,0
235266,-504,-488,-8286,-29,-84,120,3988,0,5,-2,5168,189,99,25,144,0,6,0,0,0,0,0,0,-32330,0,0,0,3376,0,235200,0
235276,-440,-708,-8522,-69,-366,220,3988,9,1,1,5160,188,70,25,144,0,6,0,0,0,0,0,0,-32330,0,0,0,3376,0,235206,0
235286,-358,-658,-8340,-42,-330,213,3986,-5,-1,1,5168,190,60,25,144,0,6,0,0,0,0,0,0,-32330,0,0,0,3376,0,235216,0
235296,-252,-692,-8448,-54,-164,248,3987,0,-1,-1,5168,186,65,25,144,0,6,0,0,0,0,0,0,-32330,0,0,0,3376,0,235216,0
235306,-212,-686,-8668,-9,-183,241,3988,8,8,-1,5168,186,67,25,144,0,6,0,0,0,0,0,0,-32330,0,0,0,3376,0,235221,0
235316,-78,-774,-8140,-21,-141,229,3988,3,5,3,5168,183,59,25,144,0,6,0,0,0,0,0,0,-32330,0,0,0,3376,0,235231,0
235326,-106,-726,-8424,-12,-103,213,3988,4,4,3,5160,183,66,25,144,0,6,0,0,0,0,0,0,-32330,0,0,0,3376,0,235235,0
235336,-116,-778,-8164,-6,-55,216,3988,0,5,-1,5160,182,52,25,144,0,6,0,0,0,0,0,0,-32330,0,0,0,3376,0,235246,0
235346,-44,-730,-8434,-20,-54,226,3987,3,0,0,5168,184,53,25,144,0,6,0,0,0,0,0,0,-32331,0,0,0,3376,0,235251,0
235356,-124,-882,-8274,-21,-137,253,3987,1,0,-1,5152,191,44,25,144,0,6,0,0,0,0,0,0,-32330,0,0,0,3376,0,235261,0
235366,-58,-876,-8354,-25,-206,271,3987,7,-3,0,5168,190,28,25,144,0,6,0,0,0,0,0,0,-32330,0,0,0,3376,0,235266,0
235376,296,-740,-8842,-6,-89,300,3987,-7,2,4,5160,190,30,25,144,0,6,0,0,0,0,0,0,-32330,0,0,0,3376,0,235275,0
235386,322,-694,-7868,13,-3,344,3988,5,-4,-1,5160,188,39,25,144,0,6,0,0,0,0,0,0,-32330,0,0,0,3376,0,235288,0
235396,264,-412,-8564,31,-38,374,3986,-9,-1,0,5168,188,30,25,144,0,6,0,0,0,0,0,0,-32331,0,0,0,3376,0,235291,0
235406,-1258,684,-8264,-42,-244,231,3988,3,-2,-1,5160,188,9,25,144,0,6,0,0,0,0,0,0,-32331,0,0,0,3376,0,235295,0
235416,-796,302,-7586,-15,-62,14,3987,1,-5,-1,5168,187,31,25,144,0,6,0,0,0,0,0,0,-32330,0,0,0,3376,0,235307,0
235426,-94,268,-8444,8,14,34,3989,10,0,1,5168,188,49,25,144,0,6,0,0,0,0,0,0,-32330,0,0,0,3376,0,235312,0
235436,-326,104,-8374,-12,-76,20,3986,-5,-4,0,5168,189,70,25,144,0,6,0,0,0,0,0,0,-32331,0,0,0,3376,0,235320,0
235446,-320,-278,-8084,-12,-12,24,3986,0,-3,1,5168,190,77,25,144,0,6,0,0,0,0,0,0,-32331,0,0,0,3376,0,235330,0
235456,-306,-448,-8322,-7,-41,21,3988,-1,3,-2,5152,190,63,25,144,0,6,0,0,0,0,0,0,-32331,0,0,0,3375,0,235343,0
235466,-374,-454,-8348,-16,-47,12,3987,4,-2,3,5160,186,67,25,144,0,6,0,0,0,0,0,0,-32330,0,0,0,3376,0,235348,0
235476,-254,-530,-8566,-6,-38,9,3988,0,5,-2,5160,185,102,25,144,0,6,0,0,0,0,0,0,-32330,0,0,0,3376,0,235358,0
235486,-206,-472,-8096,-19,-61,21,3986,-2,-8,4,5168,192,135,25,144,0,6,0,0,0,0,0,0,-32331,0,0,0,3376,0,235403,0
235496,-212,-468,-8276,-6,-36,30,3987,-1,-2,0,5168,196,168,25,144,0,6,0,0,0,0,0,0,-32330,0,0,0,3376,0,235408,0
235506,-206,-460,-8248,-21,-61,40,3987,0,2,-1,5168,197,157,25,144,0,6,0,0,0,0,0,0,-32330,0,0,0,3377,0,235418,0
235516,-334,-454,-8148,-22,-45,42,3987,-2,-2,6,5168,193,111,25,144,0,6,0,0,0,0,0,0,-32330,0,0,0,3378,0,235426,0
235526,-306,-428,-8206,-13,-55,40,3987,-1,0,0,5160,188,105,25,144,0,6,0,0,0,0,0,0,-32330,0,0,0,3377,0,235434,0
235536,-332,-604,-8290,-25,-62,24,3986,-5,-3,5,5152,194,117,25,144,0,6,0,0,0,0,0,0,-32330,0,0,0,3376,0,235438,0
235546,-318,-440,-8112,-16,22,4,3987,-5,-3,-3,5160,201,140,25,144,0,6,0,0,0,0,0,0,-32331,0,0,0,3376,0,235449,0
235556,-144,-506,-8382,-8,-43,8,3988,9,-1,-2,5160,202,150,24,144,0,6,0,0,0,0,0,0,-32330,0,0,0,3377,0,235456,0
235566,-102,-484,-8272,-26,-33,31,3988,4,8,1,5168,198,166,25,144,0,6,0,0,0,0,0,0,-32331,0,0,0,3376,0,235461,0
235576,-262,-488,-8272,-21,-48,42,3986,-2,-10,1,5152,205,166,25,144,0,6,0,0,0,0,0,0,-32332,0,0,0,3376,0,235470,0
235586,-244,-480,-8312,-12,-41,37,3987,4,1,-3,5152,201,140,25,144,0,6,0,0,0,0,0,0,-32329,0,0,0,3376,0,235476,0
235596,-288,-442,-8372,-20,-40,39,3987,-5,-1,2,5168,198,125,25,144,0,6,0,0,0,0,0,0,-32330,0,0,0,3376,0,235494,0
235606,-258,-486,-8250,-15,-42,40,3988,1,-5,-1,5160,193,68,25,144,0,6,0,0,0,0,0,0,-32330,0,0,0,3376,0,235499,0
235616,-312,-476,-8324,-19,-38,37,3988,7,-2,4,5168,192,35,25,144,0,6,0,0,0,0,0,0,-32330,0,0,0,3376,0,235502,0
235626,-316,-468,-8300,-19,-46,39,3986,-8,2,-1,5168,195,60,25,144,0,6,0,0,0,0,0,0,-32331,0,0,0,3376,0,235515,0
235636,-296,-468,-8298,-12,-34,42,3988,2,3,-1,5160,194,92,25,144,0,6,0,0,0,0,0,0,-32330,0,0,0,3377,0,235525,0
235646,-300,-462,-8304,-16,-45,41,3988,2,1,2,5168,194,104,25,144,0,6,0,0,0,0,0,0,-32332,0,0,0,3376,0,235530,0
235656,-276,-464,-8276,-15,-32,39,3987,-7,3,-1,5152,200,90,25,144,0,6,0,0,0,0,0,0,-32332,0,0,0,3376,0,235552,0
235666,-278,-440,-8288,-17,-37,41,3987,-1,-5,-2,5168,196,74,25,144,0,6,0,0,0,0,0,0,-32330,0,0,0,3376,0,235554,0
235676,-306,-462,-8270,-17,-38,41,3986,0,-3,-2,5168,193,71,25,144,0,6,0,0,0,0,0,0,-32331,0,0,0,3376,0,235559,0
235686,-278,-480,-8308,-11,-36,38,3988,0,5,0,5168,187,82,25,144,0,6,0,0,0,0,0,0,-32331,0,0,0,3376,0,235569,0
235696,-288,-464,-8306,-17,-49,42,3987,-8,-7,1,5168,188,77,25,144,0,6,0,0,0,0,0,0,-32331,0,0,0,3377,0,235591,0
235706,-278,-490,-8298,-15,-37,41,3987,-7,0,-4,5152,188,63,25,144,0,6,0,0,0,0,0,0,-32332,0,0,0,3376,0,235596,0
235716,-278,-462,-8298,-19,-44,40,3988,6,-2,0,5168,190,79,25,144,0,6,0,0,0,0,0,0,-32330,0,0,0,3376,0,235603,0
235726,-284,-472,-8272,-16,-42,37,3988,-2,-2,2,5160,188,64,25,144,0,6,0,0,0,0,0,0,-32330,0,0,0,3376,0,235621,0
235736,-272,-474,-8294,-16,-44,41,3988,2,4,3,5152,190,67,25,144,0,6,0,0,0,0,0,0,-32330,0,0,0,3376,0,235626,0
235746,-290,-448,-8266,-14,-38,40,3987,-3,1,1,5168,195,87,25,144,0,6,0,0,0,0,0,0,-32331,0,0,0,3377,0,235635,0
235756,-288,-446,-8298,-20,-44,39,3987,-2,2,-3,5160,198,91,25,144,0,6,0,0,0,0,0,0,-32331,0,0,0,3376,0,235642,0
235766,-288,-460,-8286,-15,-40,43,3987,-5,-7,1,5160,195,105,25,144,0,6,0,0,0,0,0,0,-32330,0,0,0,3376,0,235650,0
235776,-282,-454,-8290,-17,-39,40,3988,4,2,2,5160,191,61,25,144,0,6,0,0,0,0,0,0,-32331,0,0,0,3376,0,235665,0
235786,-280,-474,-8282,-14,-40,39,3987,0,1,-1,5168,189,68,25,144,0,6,0,0,0,0,0,0,-32330,0,0,0,3376,0,235672,0
235796,-272,-442,-8284,-14,-38,40,3987,2,1,1,5168,194,67,25,144,0,6,0,0,0,0,0,0,-32330,0,0,0,3376,0,235680,0
235806,-270,-460,-8308,-14,-40,41,3987,-5,0,0,5160,191,75,25,144,0,6,0,0,0,0,0,0,-32331,0,0,0,3376,0,235693,0
235816,-304,-468,-8288,-13,-36,40,3985,-8,-3,2,5160,185,77,25,144,0,6,0,0,0,0,0,0,-32331,0,0,0,3376,0,235700,0
235826,-270,-458,-8294,-18,-43,42,3987,2,-1,0,5160,190,107,25,144,0,6,0,0,0,0,0,0,-32330,0,0,0,3377,0,235708,0
235836,-270,-478,-8284,-20,-38,39,3987,1,5,2,5152,197,121,25,144,0,6,0,0,0,0,0,0,-32330,0,0,0,3376,0,235719,0
235846,-272,-486,-8296,-16,-36,43,3986,-7,-3,0,5168,202,127,25,144,0,6,0,0,0,0,0,0,-32330,0,0,0,3377,0,235740,0
235856,-306,-464,-8274,-15,-39,37,3989,7,8,-3,5160,199,132,25,144,0,6,0,0,0,0,0,0,-32331,0,0,0,3376,0,235750,0
235866,-298,-466,-8308,-22,-36,40,3988,3,1,0,5168,192,109,25,144,0,6,0,0,0,0,0,0,-32331,0,0,0,3376,0,235785,0
235876,-268,-464,-8276,-16,-40,42,3986,-6,-3,1,5160,195,96,25,144,0,6,0,0,0,0,0,0,-32331,0,0,0,3377,0,235808,0
235886,-290,-450,-8302,-17,-37,37,3986,-6,0,2,5168,193,61,25,144,0,6,0,0,0,0,0,0,-32330,0,0,0,3377,0,235816,0
235896,-296,-456,-8284,-16,-35,41,3986,1,4,0,5168,188,42,25,144,0,6,0,0,0,0,0,0,-32330,0,0,0,3376,0,235823,0
235906,-268,-454,-8282,-12,-39,41,3990,7,2,2,5168,182,47,25,144,0,6,0,0,0,0,0,0,-32330,0,0,0,3376,0,235823,0
235916,-276,-472,-8302,-18,-38,42,3987,-5,3,7,5168,184,53,25,144,0,6,0,0,0,0,0,0,-32330,0,0,0,3376,0,235828,0
235926,-284,-454,-8278,-18,-45,37,3988,1,-1,3,5160,194,79,25,144,0,6,0,0,0,0,0,0,-32330,0,0,0,3377,0,235839,0
235936,-280,-468,-8298,-15,-42,42,3988,3,-8,3,5160,197,82,25,144,0,6,0,0,0,0,0,0,-32331,0,0,0,3377,0,235844,0
235946,-250,-476,-8292,-16,-42,39,3987,-1,0,3,5152,197,95,25,144,0,6,0,0,0,0,0,0,-32331,0,0,0,3376,0,235853,0
235956,-308,-474,-8278,-19,-36,43,3989,7,-2,0,5152,195,99,25,144,0,6,0,0,0,0,0,0,-32330,0,0,0,3377,0,235858,0
235966,-276,-472,-8282,-17,-41,38,3987,-4,-2,2,5160,193,119,25,144,0,6,0,0,0,0,0,0,-32330,0,0,0,3377,0,235868,0
235976,-298,-470,-8300,-16,-37,38,3989,4,1,-2,5160,200,157,25,144,0,6,0,0,0,0,0,0,-32330,0,0,0,3376,0,235874,0
