state_time,accelx,accely,accelz,gyrox,gyroy,gyroz,mot_ang,mot_vel,mot_acc,mot_cur,mot_volt,batt_volt,batt_curr,temperature,status_mn,status_ex,status_re,genvar_0,genvar_1,genvar_2,genvar_3,genvar_4,genvar_5,genvar_6,genvar_7,genvar_8,genvar_9,ank_ang,ank_vel,sys_time,event flags
411043,-422,88,8176,-18,14,28,9822,2,1,3,0,171,-11,26,144,0,6,0,0,0,0,0,0,-32292,0,0,0,4878,0,4911,0
411053,-408,74,8156,-12,14,21,9820,-7,0,3,0,175,3,26,144,0,6,0,0,0,0,0,0,-32291,0,0,0,4878,0,411043,0
411063,-420,68,8184,-15,10,24,9820,-8,-4,3,0,178,10,26,144,0,6,0,0,0,0,0,0,-32293,0,0,0,4878,0,411043,0
411073,-438,38,8146,-15,16,28,9820,-4,-3,1,0,175,-6,26,144,0,6,0,0,0,0,0,0,-32292,0,0,0,4878,0,411043,0
411083,-406,64,8178,-14,18,29,9821,-2,-3,4,0,173,-29,26,144,0,6,0,0,0,0,0,0,-32292,0,0,0,4878,0,411043,0
411093,-422,62,8152,-17,13,27,9822,-2,3,5,0,171,-21,26,144,0,6,0,0,0,0,0,0,-32292,0,0,0,4879,0,411043,0
411103,-422,68,8150,-19,14,24,9821,-2,5,3,0,175,-40,26,144,0,6,0,0,0,0,0,0,-32292,0,0,0,4878,0,411043,0
411113,-418,66,8170,-13,12,29,9821,-1,2,1,0,173,-22,26,144,0,6,0,0,0,0,0,0,-32292,0,0,0,4878,0,411043,0
411123,-404,76,8148,-13,13,24,9821,0,2,5,0,172,-41,26,144,0,6,0,0,0,0,0,0,-32292,0,0,0,4878,0,411043,0
411133,-418,48,8158,-14,16,28,9821,-2,-2,3,0,178,-14,26,144,0,6,0,0,0,0,0,0,-32292,0,0,0,4878,0,411043,0
411143,-400,66,8146,-15,14,27,9822,0,-3,0,0,181,20,26,144,0,6,0,0,0,0,0,0,-32292,0,0,0,4878,0,411043,0
411153,-436,64,8172,-13,18,26,9821,1,-2,5,0,178,34,26,144,0,6,0,0,0,0,0,0,-32292,0,0,0,4878,0,411043,0
411163,-432,40,8178,-12,18,22,9822,3,-2,3,0,175,-2,26,144,0,6,0,0,0,0,0,0,-32292,0,0,0,4878,0,411056,0
411173,-452,54,8166,-19,17,28,9822,3,1,1,0,171,-16,26,144,0,6,0,0,0,0,0,0,-32291,0,0,0,4878,0,411066,0
411183,-402,38,8174,-12,12,24,9822,-2,-3,2,0,171,-13,26,144,0,6,0,0,0,0,0,0,-32292,0,0,0,4878,0,411071,0
411193,-426,86,8184,-16,15,28,9822,6,3,6,0,169,-10,26,144,0,6,0,0,0,0,0,0,-32292,0,0,0,4878,0,411081,0
411203,-414,72,8166,-17,14,28,9822,0,0,0,0,168,-66,26,144,0,6,0,0,0,0,0,0,-32291,0,0,0,4878,0,411086,0
411213,-428,50,8186,-14,15,28,9822,-2,-1,7,0,170,-78,26,144,0,6,0,0,0,0,0,0,-32292,0,0,0,4878,0,411094,0
411223,-420,66,8154,-17,15,27,9820,-2,1,0,0,172,-67,26,144,0,6,0,0,0,0,0,0,-32292,0,0,0,4878,0,411107,0
411233,-402,68,8182,-19,15,28,9822,3,-3,1,0,176,-3,25,144,0,6,0,0,0,0,0,0,-32292,0,0,0,4878,0,411125,0
411243,-410,76,8142,-18,13,26,9821,-3,1,2,0,174,20,25,144,0,6,0,0,0,0,0,0,-32292,0,0,0,4878,0,411127,0
411253,-402,56,8158,-16,13,27,9821,2,1,4,0,169,-18,26,144,0,6,0,0,0,0,0,0,-32292,0,0,0,4877,0,411136,0
411263,-428,86,8152,-19,19,28,9823,5,0,2,0,167,-25,26,144,0,6,0,0,0,0,0,0,-32291,0,0,0,4878,0,411145,0
411273,-390,50,8164,-16,16,23,9821,-2,0,1,0,172,-12,26,144,0,6,0,0,0,0,0,0,-32292,0,0,0,4878,0,411157,0
411283,-428,74,8176,-15,16,26,9821,-2,3,2,0,176,24,26,144,0,6,0,0,0,0,0,0,-32292,0,0,0,4878,0,411178,0
411293,-406,44,8152,-18,17,24,9822,2,5,3,0,176,4,26,144,0,6,0,0,0,0,0,0,-32292,0,0,0,4878,0,411184,0
411303,-420,84,8144,-16,18,24,9822,-2,1,7,0,179,2,26,144,0,6,0,0,0,0,0,0,-32292,0,0,0,4877,0,411193,0
411313,-424,62,8172,-13,14,24,9822,3,0,1,0,179,6,26,144,0,6,0,0,0,0,0,0,-32293,0,0,0,4879,0,411199,0
411323,-400,50,8154,-20,10,27,9821,-5,2,5,0,178,-2,26,144,0,6,0,0,0,0,0,0,-32293,0,0,0,4879,0,411207,0
411333,-408,46,8158,-15,13,24,9821,0,-4,2,0,174,22,26,144,0,6,0,0,0,0,0,0,-32292,0,0,0,4878,0,411218,0
411343,-436,62,8174,-16,17,28,9822,5,-6,1,0,173,25,26,144,0,6,0,0,0,0,0,0,-32293,0,0,0,4879,0,411237,0
411353,-408,44,8166,-12,14,28,9821,3,2,0,0,177,40,26,144,0,6,0,0,0,0,0,0,-32293,0,0,0,4879,0,411250,0
411363,-426,46,8176,-18,13,27,9820,-7,5,0,0,182,49,26,144,0,6,0,0,0,0,0,0,-32293,0,0,0,4878,0,411268,0
411373,-404,66,8156,-19,15,29,9820,-5,-1,3,0,179,36,25,144,0,6,0,0,0,0,0,0,-32293,0,0,0,4878,0,411272,0
411383,-434,86,8160,-11,19,29,9821,-4,6,0,0,176,15,26,144,0,6,0,0,0,0,0,0,-32294,0,0,0,4878,0,411275,0
411393,-422,50,8158,-11,15,28,9822,5,-2,0,0,175,-8,26,144,0,6,0,0,0,0,0,0,-32292,0,0,0,4878,0,411280,0
411403,-422,70,8180,-12,10,22,9821,1,1,6,0,178,4,26,144,0,6,0,0,0,0,0,0,-32291,0,0,0,4878,0,411287,0
411413,-394,50,8168,-14,19,28,9821,0,-4,1,0,177,11,26,144,0,6,0,0,0,0,0,0,-32292,0,0,0,4878,0,411312,0
411423,-442,72,8156,-13,18,27,9821,0,2,3,0,178,8,26,144,0,6,0,0,0,0,0,0,-32292,0,0,0,4879,0,411328,0
411433,-388,70,8170,-12,19,24,9821,4,-2,4,0,176,-6,25,144,0,6,0,0,0,0,0,0,-32292,0,0,0,4878,0,411333,0
411443,-418,74,8178,-17,16,28,9821,-1,-1,1,0,173,-2,25,144,0,6,0,0,0,0,0,0,-32292,0,0,0,4878,0,411341,0
411453,-408,64,8166,-18,17,31,9822,1,-5,1,0,173,-4,26,144,0,6,0,0,0,0,0,0,-32294,0,0,0,4878,0,411347,0
411463,-390,76,8168,-15,14,26,9822,0,5,1,0,173,-26,26,144,0,6,0,0,0,0,0,0,-32292,0,0,0,4877,0,411422,0
411473,-412,78,8140,-13,12,21,9821,1,2,0,1336,173,-44,25,144,0,6,0,0,0,0,0,0,-32292,0,0,0,4878,0,411430,0
411483,-400,54,8168,-16,15,29,9822,1,5,0,3304,175,8,26,144,0,6,0,0,0,0,0,0,-32292,0,0,0,4877,0,411440,0
411493,-440,50,8166,-20,22,26,9822,9,-1,0,5168,179,42,26,144,0,6,0,0,0,0,0,0,-32292,0,0,0,4878,0,411445,0
411503,-428,54,8178,-17,14,22,9822,0,-1,4,5176,182,65,25,144,0,6,0,0,0,0,0,0,-32292,0,0,0,4878,0,411459,0
411513,-418,54,8160,-19,9,28,9821,-7,0,4,5176,181,34,25,144,0,6,0,0,0,0,0,0,-32292,0,0,0,4878,0,411459,0
411523,-436,52,8162,-12,18,26,9821,0,0,2,5168,175,39,26,144,0,6,0,0,0,0,0,0,-32292,0,0,0,4879,0,411459,0
411533,-396,50,8166,-15,17,27,9821,-2,-4,2,5168,174,40,26,144,0,6,0,0,0,0,0,0,-32292,0,0,0,4878,0,411459,0
411543,-402,50,8164,-18,12,28,9822,3,-1,3,5176,175,32,25,144,0,6,0,0,0,0,0,0,-32292,0,0,0,4878,0,411459,0
411553,-402,34,8194,-10,19,27,9820,-3,-3,1,5176,176,24,25,144,0,6,0,0,0,0,0,0,-32292,0,0,0,4878,0,411461,0
411563,-460,64,8154,-19,16,24,9822,-5,-1,5,5168,176,1,25,144,0,6,0,0,0,0,0,0,-32292,0,0,0,4878,0,411461,0
411573,-388,64,8150,-18,12,26,9822,-1,2,0,5160,177,8,26,144,0,6,0,0,0,0,0,0,-32292,0,0,0,4878,0,411475,0
411583,-418,40,8172,-21,15,26,9820,-4,3,2,5168,182,29,26,144,0,6,0,0,0,0,0,0,-32294,0,0,0,4878,0,411480,0
411593,-402,42,8170,-17,18,26,9822,2,2,-1,5160,180,17,25,144,0,6,0,0,0,0,0,0,-32293,0,0,0,4879,0,411485,0
411603,-428,64,8160,-16,16,29,9823,1,4,1,5168,179,18,25,144,0,6,0,0,0,0,0,0,-32292,0,0,0,4878,0,411490,0
411613,-424,54,8154,-14,18,21,9823,5,1,8,5168,179,-5,26,144,0,6,0,0,0,0,0,0,-32292,0,0,0,4879,0,411501,0
411623,-386,58,8172,-15,20,24,9821,-9,-4,3,5168,178,-12,26,144,0,6,0,0,0,0,0,0,-32293,0,0,0,4878,0,411507,0
411633,-430,44,8160,-18,16,26,9822,-2,-2,2,5168,176,-33,25,144,0,6,0,0,0,0,0,0,-32292,0,0,0,4878,0,411520,0
411643,-452,62,8176,-12,16,24,9823,3,-4,1,5160,178,-33,25,144,0,6,0,0,0,0,0,0,-32292,0,0,0,4878,0,411537,0
411653,-430,52,8186,-12,13,27,9822,-1,-1,5,5176,180,-5,25,144,0,6,0,0,0,0,0,0,-32292,0,0,0,4878,0,411551,0
411663,-444,52,8164,-15,13,21,9821,-2,-4,1,5176,179,19,26,144,0,6,0,0,0,0,0,0,-32292,0,0,0,4878,0,411560,0
411673,-414,36,8150,-14,12,30,9821,-6,-3,4,5160,181,40,25,144,0,6,0,0,0,0,0,0,-32292,0,0,0,4878,0,411567,0
411683,-284,56,7846,-16,25,25,9822,7,-1,1,5176,179,33,25,144,0,6,0,0,0,0,0,0,-32291,0,0,0,4879,0,411579,0
411693,-506,70,8066,-19,16,31,9823,4,5,2,5168,176,13,25,144,0,6,0,0,0,0,0,0,-32291,0,0,0,4878,0,411587,0
411703,-616,86,8092,-19,7,29,9821,-7,-2,1,5176,178,16,25,144,0,6,0,0,0,0,0,0,-32292,0,0,0,4878,0,411590,0
411713,-618,70,7984,-17,0,26,9822,3,-4,1,5176,180,44,26,144,0,6,0,0,0,0,0,0,-32292,0,0,0,4880,0,411597,0
411723,-438,48,8230,-9,12,23,9821,1,1,3,5160,184,66,25,144,0,6,0,0,0,0,0,0,-32292,0,0,0,4877,0,411604,0
411733,-410,46,8176,-15,11,31,9823,7,1,6,5168,182,57,26,144,0,6,0,0,0,0,0,0,-32292,0,0,0,4878,0,411619,0
411743,-410,62,8224,-15,14,30,9822,0,1,3,5160,180,59,26,144,0,6,0,0,0,0,0,0,-32292,0,0,0,4879,0,411624,0
411753,-400,46,8166,-9,12,27,9821,0,-3,4,5176,185,51,26,144,0,6,0,0,0,0,0,0,-32292,0,0,0,4879,0,411634,0
411763,-346,58,8222,-19,13,26,9821,-3,2,7,5176,185,3,25,144,0,6,0,0,0,0,0,0,-32292,0,0,0,4878,0,411650,0
411773,-376,34,8200,-14,18,24,9823,3,1,-1,5168,185,12,26,144,0,6,0,0,0,0,0,0,-32292,0,0,0,4878,0,411662,0
411783,-478,38,8172,-15,13,25,9821,4,-1,4,5176,181,18,26,144,0,6,0,0,0,0,0,0,-32291,0,0,0,4879,0,411664,0
411793,-458,72,8186,-25,15,26,9821,0,-1,0,5168,179,54,25,144,0,6,0,0,0,0,0,0,-32292,0,0,0,4879,0,411678,0
411803,-454,58,8248,-12,13,28,9823,2,1,7,5176,180,47,26,144,0,6,0,0,0,0,0,0,-32293,0,0,0,4878,0,411687,0
411813,-448,44,8154,-19,11,29,9822,3,-1,1,5168,182,38,26,144,0,6,0,0,0,0,0,0,-32292,0,0,0,4878,0,411699,0
411823,-432,50,8176,-10,12,24,9822,0,-1,4,5160,182,45,26,144,0,6,0,0,0,0,0,0,-32292,0,0,0,4878,0,411717,0
411833,-428,64,8162,-18,12,23,9822,4,1,5,5168,183,41,26,144,0,6,0,0,0,0,0,0,-32292,0,0,0,4878,0,411722,0
411843,-382,58,8172,-15,15,26,9821,0,-1,5,5168,182,31,26,144,0,6,0,0,0,0,0,0,-32292,0,0,0,4878,0,411737,0
411853,-436,42,8168,-22,15,27,9821,-3,-2,4,5168,182,21,25,144,0,6,0,0,0,0,0,0,-32292,0,0,0,4878,0,411745,0
411863,-396,46,8168,-13,21,24,9823,6,10,3,5176,180,16,26,144,0,6,0,0,0,0,0,0,-32292,0,0,0,4880,0,411755,0
411873,-388,68,8148,-17,10,30,9822,3,-1,5,5160,181,36,26,144,0,6,0,0,0,0,0,0,-32291,0,0,0,4879,0,411761,0
411883,-388,46,8170,-14,19,31,9822,0,0,0,5176,176,2,26,144,0,6,0,0,0,0,0,0,-32291,0,0,0,4878,0,411771,0
411893,-418,58,8184,-14,16,28,9821,2,-2,3,5168,175,-24,25,144,0,6,0,0,0,0,0,0,-32291,0,0,0,4878,0,411777,0
411903,-448,32,8164,-18,15,25,9820,-7,0,4,5168,172,-47,26,144,0,6,0,0,0,0,0,0,-32292,0,0,0,4877,0,411789,0
411913,-396,72,8162,-17,16,26,9821,-5,-2,1,5176,175,-4,25,144,0,6,0,0,0,0,0,0,-32292,0,0,0,4878,0,411799,0
411923,-410,66,8180,-17,15,28,9822,-5,1,1,5160,177,24,26,144,0,6,0,0,0,0,0,0,-32292,0,0,0,4879,0,411807,0
411933,-444,70,8150,-19,11,30,9822,-2,-3,3,5176,179,39,26,144,0,6,0,0,0,0,0,0,-32292,0,0,0,4878,0,411814,0
411943,-446,76,8178,-15,15,24,9821,-8,-1,4,5168,179,35,26,144,0,6,0,0,0,0,0,0,-32293,0,0,0,4878,0,411830,0
411953,-434,44,8170,-15,16,27,9821,-3,-1,0,5168,179,47,26,144,0,6,0,0,0,0,0,0,-32291,0,0,0,4878,0,411844,0
411963,-428,70,8174,-13,14,23,9821,1,0,7,5176,179,31,26,144,0,6,0,0,0,0,0,0,-32293,0,0,0,4878,0,411849,0
411973,-434,82,8156,-19,15,24,9822,7,1,0,5160,181,19,26,144,0,6,0,0,0,0,0,0,-32293,0,0,0,4878,0,411860,0
411983,-378,52,8156,-16,16,27,9820,-3,3,2,5168,184,26,26,144,0,6,0,0,0,0,0,0,-32293,0,0,0,4878,0,411867,0
411993,-426,68,8168,-18,14,28,9821,2,2,4,5168,185,54,26,144,0,6,0,0,0,0,0,0,-32291,0,0,0,4878,0,411875,0
412003,-414,60,8162,-16,16,30,9822,3,-2,5,5160,184,70,26,144,0,6,0,0,0,0,0,0,-32292,0,0,0,4878,0,411909,0
412013,-434,54,8176,-16,17,25,9821,-3,5,1,5176,182,50,26,144,0,6,0,0,0,0,0,0,-32292,0,0,0,4878,0,411912,0
412023,-406,54,8162,-15,11,27,9822,1,-1,0,5160,181,65,26,144,0,6,0,0,0,0,0,0,-32292,0,0,0,4878,0,411917,0
412033,-428,56,8144,-16,17,25,9821,-5,-3,3,5176,179,60,26,144,0,6,0,0,0,0,0,0,-32291,0,0,0,4878,0,411919,0
412043,-434,70,8182,-15,11,26,9821,0,4,2,5168,175,75,26,144,0,6,0,0,0,0,0,0,-32291,0,0,0,4879,0,411926,0
412053,-460,48,8180,-16,15,26,9821,-5,3,0,5168,177,55,26,144,0,6,0,0,0,0,0,0,-32294,0,0,0,4878,0,411934,0
412063,-434,64,8178,-16,14,25,9821,2,-1,3,5176,181,33,26,144,0,6,0,0,0,0,0,0,-32292,0,0,0,4878,0,411947,0
412073,-432,76,8174,-16,16,29,9821,0,0,2,5168,183,34,26,144,0,6,0,0,0,0,0,0,-32291,0,0,0,4878,0,411957,0
412083,-394,46,8174,-17,20,29,9821,-1,0,0,5176,183,36,25,144,0,6,0,0,0,0,0,0,-32292,0,0,0,4878,0,411964,0
412093,-432,60,8182,-16,20,29,9822,-4,1,2,5176,183,66,26,144,0,6,0,0,0,0,0,0,-32292,0,0,0,4878,0,411987,0
412103,-392,42,8164,-15,14,28,9821,6,1,2,5168,184,52,26,144,0,6,0,0,0,0,0,0,-32292,0,0,0,4879,0,411992,0
412113,-418,48,8182,-14,17,27,9822,0,4,3,5176,185,72,25,144,0,6,0,0,0,0,0,0,-32291,0,0,0,4879,0,412031,0
412123,-418,64,8158,-13,19,27,9821,-7,0,8,5160,179,79,25,144,0,6,0,0,0,0,0,0,-32292,0,0,0,4878,0,412067,0
412133,-420,44,8186,-16,16,25,9821,-4,1,2,5176,175,96,26,144,0,6,0,0,0,0,0,0,-32293,0,0,0,4879,0,412075,0
412143,-426,62,8176,-13,18,31,9822,4,-2,2,5168,173,59,26,144,0,6,0,0,0,0,0,0,-32292,0,0,0,4878,0,412077,0
412153,-442,66,8182,-15,16,26,9823,5,-4,3,5168,175,61,26,144,0,6,0,0,0,0,0,0,-32292,0,0,0,4879,0,412085,0
412163,-424,56,8174,-18,17,24,9821,1,2,6,5184,175,50,25,144,0,6,0,0,0,0,0,0,-32292,0,0,0,4878,0,412098,0
412173,-406,56,8176,-18,15,24,9822,0,-2,2,5168,179,70,25,144,0,6,0,0,0,0,0,0,-32292,0,0,0,4877,0,412098,0
412183,-396,72,8156,-10,10,27,9821,-1,0,5,5176,178,49,26,144,0,6,0,0,0,0,0,0,-32291,0,0,0,4878,0,412098,0
412193,-458,80,8184,-16,15,26,9822,5,-2,0,5168,179,72,25,144,0,6,0,0,0,0,0,0,-32292,0,0,0,4878,0,412098,0
412203,-420,70,8148,-16,14,24,9822,6,2,5,5168,183,87,25,144,0,6,0,0,0,0,0,0,-32292,0,0,0,4878,0,412114,0
412213,-432,72,8172,-16,14,27,9822,9,1,5,5184,183,88,25,144,0,6,0,0,0,0,0,0,-32292,0,0,0,4878,0,412119,0
412223,-384,78,8158,-8,14,28,9821,1,2,4,5168,182,64,25,144,0,6,0,0,0,0,0,0,-32293,0,0,0,4878,0,412129,0
412233,-418,74,8158,-11,14,30,9821,0,-1,0,5168,180,36,25,144,0,6,0,0,0,0,0,0,-32291,0,0,0,4878,0,412142,0
412243,-416,64,8166,-16,13,27,9822,0,-5,0,5168,182,52,26,144,0,6,0,0,0,0,0,0,-32292,0,0,0,4879,0,412157,0
412253,-388,60,8178,-14,16,23,9822,0,0,1,5168,182,56,26,144,0,6,0,0,0,0,0,0,-32292,0,0,0,4878,0,412160,0
412263,-426,66,8182,-20,14,25,9821,0,2,5,5176,183,66,26,144,0,6,0,0,0,0,0,0,-32292,0,0,0,4878,0,412167,0
412273,-426,88,8152,-17,14,27,9822,0,-3,9,5168,182,51,26,144,0,6,0,0,0,0,0,0,-32292,0,0,0,4878,0,412172,0
412283,-436,68,8192,-17,13,26,9822,3,3,3,5168,186,67,25,144,0,6,0,0,0,0,0,0,-32292,0,0,0,4878,0,412182,0
412293,-396,40,8148,-10,12,27,9822,0,-3,1,5168,184,78,25,144,0,6,0,0,0,0,0,0,-32292,0,0,0,4878,0,412187,0
412303,-400,80,8168,-21,18,27,9822,2,0,3,5168,182,96,25,144,0,6,0,0,0,0,0,0,-32292,0,0,0,4878,0,412197,0
412313,-414,78,8186,-13,18,26,9821,-6,-1,3,5176,179,87,25,144,0,6,0,0,0,0,0,0,-32292,0,0,0,4879,0,412210,0
412323,-454,84,8166,-17,17,28,9821,-5,-1,5,5168,180,94,25,144,0,6,0,0,0,0,0,0,-32292,0,0,0,4878,0,412212,0
412333,-456,28,8238,-10,18,23,9821,-1,-1,1,5168,178,81,25,144,0,6,0,0,0,0,0,0,-32291,0,0,0,4878,0,412221,0
412343,-382,54,8170,-14,14,24,9821,-3,3,3,5168,178,82,26,144,0,6,0,0,0,0,0,0,-32291,0,0,0,4878,0,412225,0
412353,-384,52,8166,-11,18,29,9822,0,-2,2,5168,177,42,26,144,0,6,0,0,0,0,0,0,-32292,0,0,0,4878,0,412234,0
412363,-432,66,8160,-14,13,32,9822,4,3,6,5184,178,26,26,144,0,6,0,0,0,0,0,0,-32292,0,0,0,4877,0,412249,0
412373,-364,48,8180,-14,12,25,9822,0,4,0,5168,183,28,26,144,0,6,0,0,0,0,0,0,-32292,0,0,0,4878,0,412258,0
412383,-406,50,8190,-18,24,30,9822,1,-1,5,5168,182,66,25,144,0,6,0,0,0,0,0,0,-32292,0,0,0,4878,0,412287,0
412393,-406,66,8154,-15,16,26,9822,4,-1,2,5168,181,75,25,144,0,6,0,0,0,0,0,0,-32292,0,0,0,4878,0,412289,0
412403,-412,32,8134,-17,14,32,9821,6,-1,3,5168,178,89,26,144,0,6,0,0,0,0,0,0,-32292,0,0,0,4878,0,412292,0
412413,-442,58,8176,-15,15,27,9822,0,-4,3,5184,179,112,26,144,0,6,0,0,0,0,0,0,-32292,0,0,0,4878,0,412295,0
412423,-422,82,8170,-17,14,28,9821,-1,1,5,5168,181,120,25,144,0,6,0,0,0,0,0,0,-32292,0,0,0,4878,0,412330,0
412433,-428,70,8178,-15,13,27,9822,1,-2,0,5176,179,81,26,144,0,6,0,0,0,0,0,0,-32291,0,0,0,4878,0,412332,0
412443,-434,88,8192,-17,14,25,9820,-3,-2,5,5168,179,58,26,144,0,6,0,0,0,0,0,0,-32292,0,0,0,4878,0,412337,0
412453,-402,56,8156,-20,15,30,9821,-1,-6,4,5168,179,33,26,144,0,6,0,0,0,0,0,0,-32292,0,0,0,4879,0,412339,0
412463,-408,70,8184,-18,18,29,9821,3,-2,2,5184,178,22,26,144,0,6,0,0,0,0,0,0,-32292,0,0,0,4878,0,412347,0
412473,-436,50,8164,-18,19,29,9822,-4,0,5,5160,178,51,26,144,0,6,0,0,0,0,0,0,-32292,0,0,0,4879,0,412383,0
412483,-402,56,8162,-12,12,29,9821,-4,1,4,5160,176,45,26,144,0,6,0,0,0,0,0,0,-32292,0,0,0,4878,0,412389,0
412493,-382,72,8180,-19,16,29,9821,0,-2,0,5160,176,55,26,144,0,6,0,0,0,0,0,0,-32292,0,0,0,4878,0,412399,0
412503,-426,74,8174,-22,13,28,9822,4,1,3,5168,180,66,25,144,0,6,0,0,0,0,0,0,-32292,0,0,0,4878,0,412413,0
412513,-434,68,8164,-16,15,25,9822,0,1,0,5176,181,73,25,144,0,6,0,0,0,0,0,0,-32292,0,0,0,4879,0,412424,0
412523,-400,64,8158,-16,19,27,9822,3,1,1,5168,182,77,26,144,0,6,0,0,0,0,0,0,-32292,0,0,0,4878,0,412430,0
412533,-404,68,8178,-13,17,29,9822,0,-1,0,5168,179,58,26,144,0,6,0,0,0,0,0,0,-32292,0,0,0,4878,0,412435,0
412543,-430,60,8162,-17,18,31,9821,1,-2,1,5176,179,55,26,144,0,6,0,0,0,0,0,0,-32292,0,0,0,4878,0,412442,0
412553,-392,70,8156,-11,10,26,9823,4,-2,6,5160,178,38,25,144,0,6,0,0,0,0,0,0,-32293,0,0,0,4879,0,412450,0
412563,-390,44,8154,-13,17,27,9822,-4,2,5,5176,178,23,26,144,0,6,0,0,0,0,0,0,-32292,0,0,0,4878,0,412452,0
412573,-436,44,8162,-15,15,27,9822,-3,-2,4,5160,178,20,26,144,0,6,0,0,0,0,0,0,-32293,0,0,0,4878,0,412457,0
412583,-392,60,8170,-18,11,25,9820,-2,2,1,5160,181,45,25,144,0,6,0,0,0,0,0,0,-32293,0,0,0,4878,0,412465,0
412593,-412,74,8166,-12,17,27,9821,0,-2,2,5168,179,49,25,144,0,6,0,0,0,0,0,0,-32293,0,0,0,4877,0,412489,0
412603,-398,64,8160,-17,16,24,9822,0,-4,3,5168,180,50,25,144,0,6,0,0,0,0,0,0,-32293,0,0,0,4878,0,412494,0
412613,-430,54,8182,-17,15,29,9821,4,2,5,5184,179,28,25,144,0,6,0,0,0,0,0,0,-32293,0,0,0,4878,0,412502,0
412623,-404,62,8176,-14,14,28,9822,-1,1,4,5168,180,45,26,144,0,6,0,0,0,0,0,0,-32291,0,0,0,4878,0,412505,0
412633,-402,70,8162,-12,14,28,9822,2,-3,2,5160,179,50,25,144,0,6,0,0,0,0,0,0,-32292,0,0,0,4878,0,412517,0
412643,-404,58,8172,-16,12,28,9821,-4,-2,4,5168,180,67,25,144,0,6,0,0,0,0,0,0,-32291,0,0,0,4878,0,412525,0
412653,-426,82,8156,-18,19,30,9822,-1,2,4,5168,182,54,25,144,0,6,0,0,0,0,0,0,-32292,0,0,0,4878,0,412539,0
412663,-454,54,8168,-11,14,26,9822,3,-2,2,5176,182,66,25,144,0,6,0,0,0,0,0,0,-32292,0,0,0,4878,0,412547,0
412673,-444,66,8170,-19,18,27,9821,8,1,5,5168,185,74,25,144,0,6,0,0,0,0,0,0,-32291,0,0,0,4878,0,412554,0
412683,-436,68,8150,-20,13,28,9822,2,4,4,5168,182,85,26,144,0,6,0,0,0,0,0,0,-32292,0,0,0,4878,0,412569,0
412693,-414,32,8154,-12,10,25,9822,0,2,2,5168,182,74,26,144,0,6,0,0,0,0,0,0,-32292,0,0,0,4878,0,412581,0
412703,-438,68,8164,-16,13,25,9821,-4,-1,3,5168,179,49,26,144,0,6,0,0,0,0,0,0,-32292,0,0,0,4878,0,412589,0
412713,-384,64,8158,-14,14,24,9822,-4,0,4,5160,178,36,26,144,0,6,0,0,0,0,0,0,-32292,0,0,0,4878,0,412596,0
412723,-448,66,8174,-17,13,31,9821,-6,-2,6,5168,180,30,26,144,0,6,0,0,0,0,0,0,-32293,0,0,0,4878,0,412608,0
412733,-416,88,8192,-14,12,28,9821,-3,-3,4,5168,179,9,26,144,0,6,0,0,0,0,0,0,-32293,0,0,0,4878,0,412622,0
412743,-426,44,8158,-14,12,25,9821,3,0,6,5168,178,26,26,144,0,6,0,0,0,0,0,0,-32292,0,0,0,4878,0,412632,0
412753,-410,46,8144,-20,18,20,9821,2,-4,3,5168,176,35,26,144,0,6,0,0,0,0,0,0,-32292,0,0,0,4878,0,412644,0
412763,-396,68,8164,-18,13,27,9822,-1,5,6,5176,176,57,26,144,0,6,0,0,0,0,0,0,-32292,0,0,0,4878,0,412669,0
412773,-414,62,8162,-16,15,25,9822,-5,0,-1,5168,179,62,26,144,0,6,0,0,0,0,0,0,-32292,0,0,0,4879,0,412691,0
412783,-436,64,8174,-19,12,27,9823,0,2,2,5168,178,38,26,144,0,6,0,0,0,0,0,0,-32292,0,0,0,4878,0,412693,0
412793,-400,56,8164,-18,10,25,9822,4,-3,2,5168,181,34,26,144,0,6,0,0,0,0,0,0,-32292,0,0,0,4878,0,412701,0
412803,-426,36,8164,-18,17,23,9822,-4,0,2,5168,181,29,26,144,0,6,0,0,0,0,0,0,-32291,0,0,0,4878,0,412713,0
412813,-430,62,8182,-13,15,26,9822,-1,-3,0,5168,184,46,26,144,0,6,0,0,0,0,0,0,-32292,0,0,0,4879,0,412721,0
412823,-444,64,8172,-19,14,23,9821,-9,1,0,5160,179,18,26,144,0,6,0,0,0,0,0,0,-32292,0,0,0,4878,0,412737,0
412833,-390,42,8184,-17,13,27,9822,0,-5,2,5168,176,2,26,144,0,6,0,0,0,0,0,0,-32291,0,0,0,4878,0,412742,0
412843,-442,62,8172,-13,14,28,9821,2,-3,2,5176,171,-1,26,144,0,6,0,0,0,0,0,0,-32293,0,0,0,4878,0,412752,0
412853,-430,72,8156,-13,12,27,9822,5,3,3,5168,170,-16,26,144,0,6,0,0,0,0,0,0,-32292,0,0,0,4878,0,412757,0
412863,-424,54,8170,-19,17,25,9821,6,3,3,5168,177,8,25,144,0,6,0,0,0,0,0,0,-32292,0,0,0,4878,0,412767,0
412873,-406,52,8148,-14,16,24,9822,0,7,3,5160,180,6,26,144,0,6,0,0,0,0,0,0,-32292,0,0,0,4878,0,412783,0
412883,-398,76,8174,-13,17,26,9822,1,0,0,5168,177,26,26,144,0,6,0,0,0,0,0,0,-32291,0,0,0,4877,0,412788,0
412893,-422,44,8166,-14,17,28,9821,-5,-1,5,5160,173,14,26,144,0,6,0,0,0,0,0,0,-32292,0,0,0,4878,0,412791,0
412903,-394,28,8172,-20,14,26,9822,3,-3,4,5160,174,1,26,144,0,6,0,0,0,0,0,0,-32292,0,0,0,4878,0,412803,0
412913,-404,54,8162,-15,14,31,9822,-1,2,2,5168,179,-26,26,144,0,6,0,0,0,0,0,0,-32292,0,0,0,4879,0,412810,0
412923,-386,60,8144,-10,16,27,9821,-11,-3,0,5160,179,-54,26,144,0,6,0,0,0,0,0,0,-32291,0,0,0,4878,0,412813,0
412933,-430,50,8172,-13,15,28,9821,1,-4,5,5176,170,-71,26,144,0,6,0,0,0,0,0,0,-32291,0,0,0,4878,0,412820,0
412943,-430,60,8186,-20,16,28,9822,-3,2,2,5168,169,-82,26,144,0,6,0,0,0,0,0,0,-32292,0,0,0,4878,0,412828,0
412953,-430,62,8154,-13,17,25,9822,-2,1,7,5168,173,-70,26,144,0,6,0,0,0,0,0,0,-32293,0,0,0,4878,0,412841,0
412963,-436,98,8136,-18,21,27,9822,1,2,3,5176,174,-55,26,144,0,6,0,0,0,0,0,0,-32292,0,0,0,4879,0,412856,0
412973,-436,54,8168,-17,13,26,9821,-5,-1,2,5168,167,-58,26,144,0,6,0,0,0,0,0,0,-32291,0,0,0,4879,0,412877,0
412983,-414,78,8174,-17,12,25,9822,3,1,3,5168,167,-55,26,144,0,6,0,0,0,0,0,0,-32292,0,0,0,4878,0,412885,0
412993,-416,56,8146,-13,13,27,9822,0,0,1,5168,170,-76,26,144,0,6,0,0,0,0,0,0,-32292,0,0,0,4878,0,412893,0
413003,-424,74,8194,-23,18,21,9822,4,-3,6,5168,174,-58,26,144,0,6,0,0,0,0,0,0,-32292,0,0,0,4878,0,412895,0
413013,-414,78,8156,-19,13,26,9821,0,2,2,5168,170,-57,26,144,0,6,0,0,0,0,0,0,-32292,0,0,0,4878,0,412908,0
413023,-424,54,8154,-16,13,25,9822,5,-6,6,5160,170,-53,26,144,0,6,0,0,0,0,0,0,-32291,0,0,0,4878,0,412916,0
413033,-426,82,8160,-13,17,24,9821,0,5,2,5168,168,-73,26,144,0,6,0,0,0,0,0,0,-32292,0,0,0,4878,0,412918,0
413043,-428,42,8152,-17,12,26,9821,-3,-2,6,5168,169,-75,26,144,0,6,0,0,0,0,0,0,-32291,0,0,0,4879,0,412926,0
413053,-400,40,8160,-16,19,28,9821,-8,-1,5,5168,170,-59,26,144,0,6,0,0,0,0,0,0,-32292,0,0,0,4878,0,412945,0
413063,-450,38,8142,-21,19,26,9822,0,5,1,5176,170,-60,26,144,0,6,0,0,0,0,0,0,-32292,0,0,0,4879,0,412948,0
413073,-414,94,8172,-16,15,24,9822,0,2,4,5168,172,-87,26,144,0,6,0,0,0,0,0,0,-32291,0,0,0,4879,0,412955,0
413083,-426,78,8170,-16,15,27,9820,-5,0,1,5160,171,-62,26,144,0,6,0,0,0,0,0,0,-32291,0,0,0,4879,0,412967,0
413093,-436,60,8180,-16,17,24,9822,6,-1,4,5176,173,-29,26,144,0,6,0,0,0,0,0,0,-32292,0,0,0,4878,0,412977,0
413103,-414,70,8188,-19,14,27,9822,5,2,6,5168,171,-15,26,144,0,6,0,0,0,0,0,0,-32291,0,0,0,4878,0,412986,0
413113,-438,64,8160,-15,18,23,9822,2,3,4,5176,171,-26,26,144,0,6,0,0,0,0,0,0,-32291,0,0,0,4878,0,412997,0
413123,-446,52,8168,-22,14,24,9822,-4,-3,0,5168,174,-26,26,144,0,6,0,0,0,0,0,0,-32292,0,0,0,4880,0,413004,0
413133,-416,54,8134,-19,16,24,9821,-4,-4,4,5176,176,-20,26,144,0,6,0,0,0,0,0,0,-32292,0,0,0,4878,0,413014,0
413143,-476,64,8142,-13,13,23,9822,2,-2,0,5176,176,-16,26,144,0,6,0,0,0,0,0,0,-32292,0,0,0,4878,0,413036,0
413153,-428,70,8166,-16,16,26,9821,0,3,2,5168,175,-12,26,144,0,6,0,0,0,0,0,0,-32292,0,0,0,4879,0,413043,0
413163,-426,34,8128,-15,18,28,9822,-2,2,9,5176,174,-32,26,144,0,6,0,0,0,0,0,0,-32291,0,0,0,4878,0,413046,0
413173,-410,44,8176,-13,14,29,9822,6,-1,5,5168,177,-74,26,144,0,6,0,0,0,0,0,0,-32291,0,0,0,4878,0,413068,0
413183,-394,60,8174,-17,15,28,9821,0,-1,4,5160,174,-67,26,144,0,6,0,0,0,0,0,0,-32293,0,0,0,4878,0,413075,0
413193,-426,40,8172,-16,18,24,9822,-2,-1,2,5168,171,-75,26,144,0,6,0,0,0,0,0,0,-32292,0,0,0,4879,0,413090,0
413203,-408,62,8174,-15,20,28,9822,1,1,4,5168,172,-86,26,144,0,6,0,0,0,0,0,0,-32291,0,0,0,4878,0,413095,0
413213,-412,68,8190,-18,13,23,9821,0,3,5,5176,176,-56,26,144,0,6,0,0,0,0,0,0,-32293,0,0,0,4878,0,413098,0
413223,-382,52,8154,-14,13,24,9822,2,2,2,5168,174,-49,26,144,0,6,0,0,0,0,0,0,-32291,0,0,0,4878,0,413106,0
413233,-444,46,8188,-20,17,28,9821,-3,6,1,5168,169,-58,26,144,0,6,0,0,0,0,0,0,-32291,0,0,0,4878,0,413125,0
413243,-424,56,8170,-18,13,28,9822,0,1,1,5176,169,-54,26,144,0,6,0,0,0,0,0,0,-32292,0,0,0,4878,0,413132,0
413253,-416,62,8166,-16,16,26,9822,5,-2,3,5168,171,-62,26,144,0,6,0,0,0,0,0,0,-32292,0,0,0,4878,0,413135,0
413263,-410,62,8140,-18,17,23,9821,0,1,1,5168,175,-52,26,144,0,6,0,0,0,0,0,0,-32292,0,0,0,4878,0,413148,0
413273,-398,54,8170,-17,14,23,9822,-1,0,4,5160,170,-46,26,144,0,6,0,0,0,0,0,0,-32293,0,0,0,4879,0,413156,0
413283,-406,54,8182,-19,16,26,9821,5,1,0,5168,168,-65,26,144,0,6,0,0,0,0,0,0,-32293,0,0,0,4878,0,413176,0
413293,-416,26,8174,-15,11,29,9822,0,-4,4,5168,171,-81,26,144,0,6,0,0,0,0,0,0,-32291,0,0,0,4878,0,413179,0
413303,-408,74,8174,-15,17,26,9821,-6,-4,5,5168,176,-62,25,144,0,6,0,0,0,0,0,0,-32291,0,0,0,4877,0,413188,0
413313,-422,58,8176,-16,14,25,9822,3,1,-2,5168,176,-37,26,144,0,6,0,0,0,0,0,0,-32292,0,0,0,4879,0,413195,0
413323,-464,80,8170,-17,12,26,9822,0,-3,0,5168,174,-7,26,144,0,6,0,0,0,0,0,0,-32292,0,0,0,4878,0,413207,0
413333,-396,82,8154,-13,21,26,9822,-2,-3,3,5168,172,-22,26,144,0,6,0,0,0,0,0,0,-32291,0,0,0,4879,0,413218,0
413343,-446,38,8174,-15,15,24,9821,4,2,2,5176,171,-21,26,144,0,6,0,0,0,0,0,0,-32292,0,0,0,4879,0,413230,0
413353,-422,68,8172,-20,13,24,9821,-7,-2,3,5160,175,-11,26,144,0,6,0,0,0,0,0,0,-32292,0,0,0,4878,0,413245,0
413363,-416,54,8176,-19,14,26,9822,4,0,2,5168,175,-6,26,144,0,6,0,0,0,0,0,0,-32292,0,0,0,4878,0,413262,0
413373,-440,56,8158,-18,13,26,9821,-1,0,1,5160,174,-29,26,144,0,6,0,0,0,0,0,0,-32293,0,0,0,4878,0,413267,0
413383,-412,66,8160,-19,21,28,9820,-7,3,1,5168,173,-39,26,144,0,6,0,0,0,0,0,0,-32291,0,0,0,4878,0,413277,0
413393,-418,54,8178,-17,12,26,9821,-7,-3,3,5176,176,-19,26,144,0,6,0,0,0,0,0,0,-32292,0,0,0,4878,0,413282,0
413403,-418,56,8168,-16,14,29,9819,-10,3,1,5168,174,-9,25,144,0,6,0,0,0,0,0,0,-32292,0,0,0,4878,0,413321,0
413413,-416,38,8162,-11,14,27,9821,-2,0,3,5168,171,14,25,144,0,6,0,0,0,0,0,0,-32292,0,0,0,4879,0,413346,0
413423,-408,70,8168,-13,15,27,9821,1,2,1,5168,174,7,26,144,0,6,0,0,0,0,0,0,-32292,0,0,0,4878,0,413358,0
413433,-418,56,8150,-18,17,27,9821,-3,5,0,5168,178,2,26,144,0,6,0,0,0,0,0,0,-32291,0,0,0,4878,0,413368,0
413443,-390,64,8168,-19,20,22,9822,7,0,1,5176,179,0,26,144,0,6,0,0,0,0,0,0,-32291,0,0,0,4878,0,413375,0
413453,-408,84,8162,-13,11,31,9822,5,0,1,5168,176,-19,26,144,0,6,0,0,0,0,0,0,-32291,0,0,0,4878,0,413375,0
413463,-410,48,8178,-12,10,24,9821,0,3,1,5176,173,-37,26,144,0,6,0,0,0,0,0,0,-32292,0,0,0,4879,0,413375,0
413473,-416,78,8136,-20,18,26,9821,-1,3,2,5168,172,-45,26,144,0,6,0,0,0,0,0,0,-32292,0,0,0,4878,0,413375,0
413483,-418,68,8164,-12,12,26,9822,0,-2,0,5168,170,-45,26,144,0,6,0,0,0,0,0,0,-32291,0,0,0,4878,0,413383,0
413493,-384,70,8154,-19,15,26,9821,3,3,0,5176,171,-20,26,144,0,6,0,0,0,0,0,0,-32292,0,0,0,4878,0,413388,0
413503,-400,104,8144,-18,17,31,9821,0,0,5,5168,176,-10,26,144,0,6,0,0,0,0,0,0,-32292,0,0,0,4878,0,413398,0
413513,-400,58,8172,-12,14,25,9822,4,-1,1,5168,185,4,26,144,0,6,0,0,0,0,0,0,-32292,0,0,0,4878,0,413403,0
413523,-436,54,8172,-14,16,27,9821,-3,-2,5,5168,186,3,26,144,0,6,0,0,0,0,0,0,-32292,0,0,0,4878,0,413411,0
413533,-396,72,8168,-16,19,27,9822,0,0,5,5176,178,-7,26,144,0,6,0,0,0,0,0,0,-32292,0,0,0,4878,0,413418,0
413543,-420,82,8168,-14,14,23,9821,-5,-5,2,5168,170,-59,26,144,0,6,0,0,0,0,0,0,-32292,0,0,0,4878,0,413426,0
413553,-430,46,8174,-13,12,27,9821,1,1,1,5168,170,-66,25,144,0,6,0,0,0,0,0,0,-32292,0,0,0,4878,0,413447,0
413563,-404,50,8178,-13,16,29,9822,0,-2,1,5168,176,-42,26,144,0,6,0,0,0,0,0,0,-32293,0,0,0,4878,0,413479,0
413573,-438,58,8180,-15,10,27,9821,3,5,0,5168,177,4,26,144,0,6,0,0,0,0,0,0,-32292,0,0,0,4878,0,413484,0
413583,-452,56,8160,-20,19,27,9821,2,6,-2,5168,176,1,26,144,0,6,0,0,0,0,0,0,-32292,0,0,0,4879,0,413489,0
413593,-450,78,8176,-19,16,29,9821,0,-1,1,5176,173,-18,26,144,0,6,0,0,0,0,0,0,-32292,0,0,0,4878,0,413499,0
413603,-410,56,8172,-18,15,29,9822,3,0,4,5168,173,-24,26,144,0,6,0,0,0,0,0,0,-32292,0,0,0,4879,0,413509,0
413613,-392,18,8170,-24,18,29,9821,-1,4,3,5176,173,-16,26,144,0,6,0,0,0,0,0,0,-32292,0,0,0,4878,0,413511,0
413623,-442,56,8158,-17,11,26,9821,3,1,4,5176,173,2,25,144,0,6,0,0,0,0,0,0,-32292,0,0,0,4879,0,413526,0
413633,-408,82,8156,-16,15,26,9820,-7,4,4,5168,168,-19,26,144,0,6,0,0,0,0,0,0,-32292,0,0,0,4879,0,413533,0
413643,-406,70,8168,-19,15,24,9823,-1,-4,0,5168,170,-36,26,144,0,6,0,0,0,0,0,0,-32292,0,0,0,4877,0,413536,0
413653,-446,70,8178,-19,13,28,9823,6,1,1,5168,174,-37,26,144,0,6,0,0,0,0,0,0,-32292,0,0,0,4878,0,413547,0
413663,-414,54,8160,-15,18,26,9821,0,0,1,5176,174,-34,26,144,0,6,0,0,0,0,0,0,-32291,0,0,0,4878,0,413552,0
413673,-426,68,8160,-15,15,22,9823,4,0,4,5176,171,-39,26,144,0,6,0,0,0,0,0,0,-32292,0,0,0,4879,0,413567,0
413683,-428,66,8172,-21,13,28,9821,-1,-3,0,5160,170,-53,26,144,0,6,0,0,0,0,0,0,-32292,0,0,0,4878,0,413569,0
413693,-394,48,8146,-15,12,27,9821,-5,-1,0,5176,173,-35,25,144,0,6,0,0,0,0,0,0,-32292,0,0,0,4878,0,413577,0
413703,-428,66,8154,-14,15,29,9821,2,0,6,5168,174,2,25,144,0,6,0,0,0,0,0,0,-32292,0,0,0,4878,0,413594,0
413713,-416,66,8158,-15,18,26,9823,1,2,3,5168,176,13,25,144,0,6,0,0,0,0,0,0,-32292,0,0,0,4879,0,413613,0
413723,-424,62,8180,-17,17,24,9822,-5,0,3,5168,172,-7,26,144,0,6,0,0,0,0,0,0,-32292,0,0,0,4879,0,413616,0
413733,-414,30,8164,-19,10,27,9821,-3,-3,4,5176,173,-18,26,144,0,6,0,0,0,0,0,0,-32292,0,0,0,4879,0,413620,0
413743,-440,78,8180,-20,13,22,9821,0,-1,3,5176,172,-21,26,144,0,6,0,0,0,0,0,0,-32291,0,0,0,4878,0,413628,0
413753,-414,42,8172,-17,14,27,9821,0,1,2,5168,171,-18,26,144,0,6,0,0,0,0,0,0,-32292,0,0,0,4878,0,413635,0
413763,-406,72,8168,-17,12,25,9821,2,-2,3,5168,168,-40,26,144,0,6,0,0,0,0,0,0,-32291,0,0,0,4879,0,413649,0
413773,-430,40,8168,-15,10,31,9822,5,1,2,5176,170,-39,26,144,0,6,0,0,0,0,0,0,-32292,0,0,0,4878,0,413664,0
413783,-428,56,8190,-19,17,25,9821,-4,3,5,5160,172,-15,26,144,0,6,0,0,0,0,0,0,-32293,0,0,0,4879,0,413668,0
413793,-392,76,8164,-11,14,27,9822,0,5,0,5176,170,-5,26,144,0,6,0,0,0,0,0,0,-32292,0,0,0,4878,0,413675,0
413803,-416,68,8154,-13,14,29,9822,3,2,4,5168,171,-11,26,144,0,6,0,0,0,0,0,0,-32293,0,0,0,4878,0,413690,0
413813,-424,62,8162,-17,17,28,9821,0,-3,5,5168,173,-22,26,144,0,6,0,0,0,0,0,0,-32293,0,0,0,4878,0,413695,0
413823,-438,66,8158,-17,11,27,9821,0,-2,-1,5176,179,-14,26,144,0,6,0,0,0,0,0,0,-32293,0,0,0,4879,0,413704,0
413833,-458,50,8172,-14,16,26,9821,-3,-3,4,5168,179,21,25,144,0,6,0,0,0,0,0,0,-32293,0,0,0,4878,0,413726,0
413843,-462,42,8160,-12,22,27,9821,-7,-1,3,5168,178,4,26,144,0,6,0,0,0,0,0,0,-32292,0,0,0,4878,0,413728,0
413853,-414,62,8174,-14,12,29,9822,-3,-1,4,5176,171,-36,26,144,0,6,0,0,0,0,0,0,-32292,0,0,0,4878,0,413738,0
413863,-440,46,8166,-14,16,25,9820,-2,-2,2,5168,174,-45,26,144,0,6,0,0,0,0,0,0,-32293,0,0,0,4879,0,413755,0
413873,-406,54,8154,-16,21,26,9821,-1,1,1,5168,176,-49,26,144,0,6,0,0,0,0,0,0,-32293,0,0,0,4878,0,413780,0
413883,-400,60,8158,-10,12,30,9821,7,-3,6,5168,180,-30,26,144,0,6,0,0,0,0,0,0,-32292,0,0,0,4879,0,413787,0
413893,-410,44,8178,-17,16,26,9822,3,3,-6,5168,176,-43,26,144,0,6,0,0,0,0,0,0,-32293,0,0,0,4879,0,413792,0
413903,-428,74,8180,-17,17,25,9821,-3,-1,4,5168,178,-36,26,144,0,6,0,0,0,0,0,0,-32292,0,0,0,4878,0,413802,0
413913,-410,60,8154,-17,19,27,9822,-1,2,0,5168,180,1,26,144,0,6,0,0,0,0,0,0,-32291,0,0,0,4878,0,413807,0
413923,-430,52,8176,-16,19,25,9822,0,1,6,5168,180,57,25,144,0,6,0,0,0,0,0,0,-32291,0,0,0,4879,0,413826,0
413933,-410,50,8172,-18,13,26,9821,-2,-3,1,5168,178,48,26,144,0,6,0,0,0,0,0,0,-32291,0,0,0,4878,0,413834,0
413943,-432,64,8168,-18,14,30,9821,-8,-3,3,5168,174,50,26,144,0,6,0,0,0,0,0,0,-32291,0,0,0,4878,0,413846,0
413953,-424,64,8172,-14,19,22,9821,0,-2,0,5168,172,-3,26,144,0,6,0,0,0,0,0,0,-32293,0,0,0,4878,0,413848,0
413963,-430,68,8164,-18,16,26,9820,-8,0,0,5168,172,-22,26,144,0,6,0,0,0,0,0,0,-32293,0,0,0,4878,0,413856,0
413973,-430,46,8174,-15,15,24,9822,1,4,5,5176,171,-46,26,144,0,6,0,0,0,0,0,0,-32293,0,0,0,4879,0,413868,0
413983,-410,54,8154,-20,13,28,9822,3,1,1,5168,169,-51,26,144,0,6,0,0,0,0,0,0,-32293,0,0,0,4878,0,413877,0
413993,-442,64,8168,-20,20,29,9822,0,0,-4,5168,172,-47,26,144,0,6,0,0,0,0,0,0,-32293,0,0,0,4878,0,413893,0
414003,-410,68,8164,-12,10,29,9821,0,-4,6,5168,175,-15,26,144,0,6,0,0,0,0,0,0,-32292,0,0,0,4879,0,413901,0
414013,-410,58,8170,-12,10,25,9822,3,-1,2,5168,177,10,26,144,0,6,0,0,0,0,0,0,-32292,0,0,0,4879,0,413907,0
414023,-396,66,8162,-16,15,30,9822,3,3,4,5176,178,2,26,144,0,6,0,0,0,0,0,0,-32292,0,0,0,4879,0,413920,0
414033,-414,62,8164,-15,18,22,9822,4,-1,5,5168,177,2,26,144,0,6,0,0,0,0,0,0,-32292,0,0,0,4878,0,413922,0
414043,-426,74,8144,-19,16,26,9821,0,-3,3,5160,175,-3,25,144,0,6,0,0,0,0,0,0,-32292,0,0,0,4879,0,413927,0
414053,-440,62,8152,-19,20,28,9821,1,0,5,5176,178,29,25,144,0,6,0,0,0,0,0,0,-32292,0,0,0,4878,0,413983,0
414063,-440,58,8158,-12,18,28,9822,0,-4,4,5176,175,24,25,144,0,6,0,0,0,0,0,0,-32292,0,0,0,4878,0,413996,0
414073,-418,66,8152,-16,13,25,9822,0,2,2,5168,173,16,26,144,0,6,0,0,0,0,0,0,-32292,0,0,0,4878,0,414003,0
414083,-416,34,8172,-16,14,26,9821,-1,-2,1,5176,174,25,26,144,0,6,0,0,0,0,0,0,-32292,0,0,0,4878,0,414014,0
414093,-428,74,8152,-20,14,25,9822,-1,-4,2,5160,179,49,26,144,0,6,0,0,0,0,0,0,-32291,0,0,0,4878,0,414014,0
414103,-428,68,8160,-16,17,31,9821,-1,-1,3,5176,180,20,26,144,0,6,0,0,0,0,0,0,-32292,0,0,0,4878,0,414014,0
414113,-406,86,8160,-19,18,26,9822,5,0,0,5176,176,-2,25,144,0,6,0,0,0,0,0,0,-32293,0,0,0,4878,0,414025,0
414123,-444,58,8164,-16,12,26,9822,4,2,3,5168,173,-30,26,144,0,6,0,0,0,0,0,0,-32293,0,0,0,4878,0,414033,0
414133,-414,70,8170,-21,12,29,9822,7,-1,2,5176,170,-22,26,144,0,6,0,0,0,0,0,0,-32290,0,0,0,4879,0,414039,0
414143,-428,48,8166,-16,18,30,9822,0,-3,4,5168,170,-28,26,144,0,6,0,0,0,0,0,0,-32292,0,0,0,4878,0,414043,0
414153,-426,26,8158,-19,11,29,9822,-1,0,4,5176,167,-53,26,144,0,6,0,0,0,0,0,0,-32292,0,0,0,4878,0,414046,0
414163,-436,70,8160,-17,13,25,9822,0,-1,1,5160,170,-50,26,144,0,6,0,0,0,0,0,0,-32292,0,0,0,4878,0,414048,0
414173,-430,72,8160,-17,12,26,9822,2,-1,4,5168,175,-32,26,144,0,6,0,0,0,0,0,0,-32292,0,0,0,4878,0,414058,0
414183,-434,44,8160,-21,14,21,9821,-4,1,4,5160,181,-17,26,144,0,6,0,0,0,0,0,0,-32292,0,0,0,4878,0,414066,0
414193,-426,50,8162,-18,16,29,9819,-8,0,4,5168,179,-7,26,144,0,6,0,0,0,0,0,0,-32292,0,0,0,4879,0,414077,0
414203,-420,54,8162,-14,16,26,9821,-5,1,7,5168,175,-16,26,144,0,6,0,0,0,0,0,0,-32292,0,0,0,4879,0,414104,0
414213,-420,70,8164,-14,11,27,9821,-10,0,2,5176,176,18,25,144,0,6,0,0,0,0,0,0,-32292,0,0,0,4878,0,414116,0
414223,-426,68,8156,-12,19,27,9821,0,-1,0,5168,177,21,26,144,0,6,0,0,0,0,0,0,-32292,0,0,0,4879,0,414130,0
414233,-436,46,8170,-17,18,23,9822,0,1,4,5176,177,50,26,144,0,6,0,0,0,0,0,0,-32292,0,0,0,4878,0,414132,0
414243,-400,62,8158,-12,16,31,9823,5,0,2,5160,177,25,26,144,0,6,0,0,0,0,0,0,-32291,0,0,0,4878,0,414137,0
414253,-400,32,8170,-19,12,25,9821,-8,1,6,5176,180,24,26,144,0,6,0,0,0,0,0,0,-32291,0,0,0,4878,0,414144,0
414263,-426,60,8180,-15,15,32,9821,-6,-1,3,5176,179,23,26,144,0,6,0,0,0,0,0,0,-32292,0,0,0,4878,0,414149,0
414273,-416,48,8162,-21,14,25,9821,1,5,0,5160,178,24,25,144,0,6,0,0,0,0,0,0,-32292,0,0,0,4878,0,414157,0
414283,-444,44,8160,-17,14,22,9821,-4,1,4,5160,174,22,26,144,0,6,0,0,0,0,0,0,-32291,0,0,0,4877,0,414164,0
414293,-398,60,8156,-18,15,22,9822,0,-3,2,5160,176,13,26,144,0,6,0,0,0,0,0,0,-32292,0,0,0,4878,0,414192,0
414303,-442,44,8172,-19,15,31,9822,2,0,9,5176,178,17,26,144,0,6,0,0,0,0,0,0,-32293,0,0,0,4879,0,414197,0
414313,-440,62,8144,-18,15,32,9821,3,2,3,5176,179,26,26,144,0,6,0,0,0,0,0,0,-32292,0,0,0,4879,0,414200,0
414323,-406,94,8140,-17,17,26,9821,-9,0,3,5168,181,18,25,144,0,6,0,0,0,0,0,0,-32291,0,0,0,4878,0,414206,0
414333,-450,68,8160,-16,12,26,9821,-1,1,2,5168,176,5,26,144,0,6,0,0,0,0,0,0,-32291,0,0,0,4878,0,414217,0
414343,-408,56,8150,-11,12,26,9821,-2,-2,3,5168,176,3,26,144,0,6,0,0,0,0,0,0,-32292,0,0,0,4879,0,414229,0
414353,-408,50,8162,-13,15,27,9822,0,-3,4,5176,182,17,25,144,0,6,0,0,0,0,0,0,-32292,0,0,0,4878,0,414238,0
414363,-416,72,8170,-16,11,26,9822,3,0,4,5168,179,-8,25,144,0,6,0,0,0,0,0,0,-32292,0,0,0,4878,0,414283,0
414373,-422,84,8158,-12,14,29,9822,-2,-1,0,5160,182,11,26,144,0,6,0,0,0,0,0,0,-32292,0,0,0,4878,0,414288,0
414383,-434,66,8146,-17,13,26,9821,1,3,1,5184,177,12,26,144,0,6,0,0,0,0,0,0,-32292,0,0,0,4878,0,414291,0
414393,-438,76,8178,-23,11,25,9822,0,4,0,5160,177,45,26,144,0,6,0,0,0,0,0,0,-32292,0,0,0,4878,0,414296,0
414403,-424,46,8162,-22,17,30,9821,-2,1,4,5176,178,15,26,144,0,6,0,0,0,0,0,0,-32292,0,0,0,4878,0,414298,0
414413,-424,56,8164,-15,15,23,9822,-3,-2,0,5160,179,30,25,144,0,6,0,0,0,0,0,0,-32292,0,0,0,4878,0,414303,0
414423,-418,64,8158,-15,14,24,9820,-4,4,0,5160,175,-4,26,144,0,6,0,0,0,0,0,0,-32291,0,0,0,4878,0,414312,0
414433,-438,68,8184,-16,15,27,9822,5,4,3,5168,176,22,25,144,0,6,0,0,0,0,0,0,-32293,0,0,0,4878,0,414317,0
414443,-402,56,8152,-13,15,27,9821,0,-5,2,5160,176,13,25,144,0,6,0,0,0,0,0,0,-32292,0,0,0,4877,0,414324,0
414453,-404,48,8150,-16,17,24,9822,-1,-2,3,5168,181,42,25,144,0,6,0,0,0,0,0,0,-32293,0,0,0,4879,0,414334,0
414463,-406,46,8182,-15,16,28,9822,-6,-4,6,5168,184,40,26,144,0,6,0,0,0,0,0,0,-32293,0,0,0,4878,0,414357,0
414473,-442,36,8172,-21,15,26,9822,-1,-2,4,5160,181,27,26,144,0,6,0,0,0,0,0,0,-32291,0,0,0,4878,0,414362,0
414483,-426,66,8186,-17,18,27,9822,1,-2,3,5168,181,34,26,144,0,6,0,0,0,0,0,0,-32293,0,0,0,4878,0,414372,0
414493,-410,66,8170,-13,16,23,9820,-6,-1,3,5160,179,36,25,144,0,6,0,0,0,0,0,0,-32292,0,0,0,4878,0,414377,0
414503,-430,78,8178,-21,17,27,9822,8,1,3,5176,179,47,25,144,0,6,0,0,0,0,0,0,-32292,0,0,0,4878,0,414396,0
414513,-458,40,8166,-17,19,26,9822,0,-4,7,5176,181,43,26,144,0,6,0,0,0,0,0,0,-32293,0,0,0,4878,0,414401,0
414523,-414,80,8168,-16,16,29,9821,-4,0,2,5160,179,23,26,144,0,6,0,0,0,0,0,0,-32294,0,0,0,4878,0,414410,0
414533,-402,64,8162,-20,9,30,9822,1,3,2,5176,177,-17,26,144,0,6,0,0,0,0,0,0,-32293,0,0,0,4878,0,414415,0
414543,-396,62,8160,-15,12,24,9821,-8,0,6,5160,175,-48,26,144,0,6,0,0,0,0,0,0,-32293,0,0,0,4879,0,414425,0
414553,-436,54,8180,-17,17,28,9821,-3,3,3,5168,175,-41,26,144,0,6,0,0,0,0,0,0,-32293,0,0,0,4878,0,414446,0
414563,-422,74,8138,-17,12,27,9822,-2,4,0,5176,179,1,26,144,0,6,0,0,0,0,0,0,-32291,0,0,0,4879,0,414456,0
414573,-404,60,8154,-17,16,23,9822,0,0,3,5168,182,52,26,144,0,6,0,0,0,0,0,0,-32291,0,0,0,4878,0,414465,0
414583,-410,50,8192,-18,12,25,9821,2,0,0,5168,183,58,26,144,0,6,0,0,0,0,0,0,-32293,0,0,0,4878,0,414478,0
414593,-434,62,8194,-16,11,28,9822,-2,0,2,5168,185,61,26,144,0,6,0,0,0,0,0,0,-32292,0,0,0,4879,0,414493,0
414603,-424,58,8162,-17,12,25,9822,1,0,8,5168,181,27,26,144,0,6,0,0,0,0,0,0,-32292,0,0,0,4879,0,414501,0
414613,-392,86,8160,-20,18,30,9821,-5,-2,0,5168,180,35,25,144,0,6,0,0,0,0,0,0,-32291,0,0,0,4878,0,414507,0
414623,-420,50,8160,-14,18,26,9822,3,2,1,5160,180,51,25,144,0,6,0,0,0,0,0,0,-32292,0,0,0,4878,0,414513,0
414633,-430,56,8162,-17,14,26,9821,-3,6,3,5176,182,57,25,144,0,6,0,0,0,0,0,0,-32291,0,0,0,4878,0,414518,0
414643,-406,60,8164,-19,17,25,9821,5,4,0,5168,181,70,25,144,0,6,0,0,0,0,0,0,-32292,0,0,0,4878,0,414525,0
414653,-414,50,8164,-13,16,26,9822,1,-3,2,5176,180,36,25,144,0,6,0,0,0,0,0,0,-32292,0,0,0,4878,0,414537,0
414663,-404,48,8186,-16,17,22,9823,8,4,0,5176,182,26,26,144,0,6,0,0,0,0,0,0,-32292,0,0,0,4878,0,414551,0
414673,-418,46,8152,-13,13,23,9822,0,0,2,5168,179,29,26,144,0,6,0,0,0,0,0,0,-32292,0,0,0,4878,0,414560,0
414683,-408,46,8150,-12,20,24,9821,5,-1,3,5176,178,30,26,144,0,6,0,0,0,0,0,0,-32291,0,0,0,4878,0,414566,0
414693,-418,66,8172,-11,14,30,9821,-2,0,3,5168,175,43,26,144,0,6,0,0,0,0,0,0,-32292,0,0,0,4878,0,414612,0
414703,-406,62,8170,-17,18,26,9822,5,1,4,5168,179,42,26,144,0,6,0,0,0,0,0,0,-32292,0,0,0,4878,0,414617,0
414713,-400,38,8170,-12,13,27,9821,1,0,6,5176,181,53,26,144,0,6,0,0,0,0,0,0,-32292,0,0,0,4878,0,414627,0
414723,-428,66,8162,-13,15,28,9821,0,-1,0,5160,178,52,26,144,0,6,0,0,0,0,0,0,-32291,0,0,0,4878,0,414632,0
414733,-434,82,8144,-15,13,30,9822,1,-3,0,5176,179,59,25,144,0,6,0,0,0,0,0,0,-32292,0,0,0,4878,0,414637,0
414743,-404,48,8170,-19,12,23,9822,5,3,2,5160,178,44,25,144,0,6,0,0,0,0,0,0,-32292,0,0,0,4878,0,414642,0
414753,-426,42,8158,-9,18,27,9822,2,-1,4,5168,179,52,25,144,0,6,0,0,0,0,0,0,-32292,0,0,0,4878,0,414647,0
414763,-448,54,8166,-18,11,31,9823,7,3,0,5184,179,61,25,144,0,6,0,0,0,0,0,0,-32292,0,0,0,4879,0,414657,0
414773,-430,40,8162,-15,17,29,9822,0,-2,5,5160,179,90,25,144,0,6,0,0,0,0,0,0,-32292,0,0,0,4879,0,414665,0
414783,-434,66,8174,-16,13,27,9822,3,2,0,5168,180,99,25,144,0,6,0,0,0,0,0,0,-32292,0,0,0,4878,0,414673,0
414793,-410,80,8122,-14,16,27,9821,-5,1,6,5168,178,72,25,144,0,6,0,0,0,0,0,0,-32292,0,0,0,4878,0,414678,0
414803,-424,34,8166,-23,14,29,9821,-1,-1,7,5168,179,66,25,144,0,6,0,0,0,0,0,0,-32292,0,0,0,4878,0,414686,0
414813,-416,60,8178,-15,14,28,9821,-3,-3,3,5176,183,58,25,144,0,6,0,0,0,0,0,0,-32292,0,0,0,4878,0,414710,0
414823,-430,54,8180,-17,17,23,9822,5,2,-2,5160,182,34,26,144,0,6,0,0,0,0,0,0,-32292,0,0,0,4878,0,414712,0
414833,-432,68,8168,-16,15,30,9822,5,2,3,5176,181,36,26,144,0,6,0,0,0,0,0,0,-32292,0,0,0,4878,0,414714,0
414843,-410,48,8144,-13,14,25,9821,-8,2,4,5168,180,40,25,144,0,6,0,0,0,0,0,0,-32293,0,0,0,4878,0,414737,0
414853,-426,54,8168,-13,21,23,9822,-2,-1,4,5160,183,55,26,144,0,6,0,0,0,0,0,0,-32292,0,0,0,4879,0,414741,0
414863,-462,66,8156,-15,17,26,9821,0,1,1,5184,182,66,26,144,0,6,0,0,0,0,0,0,-32292,0,0,0,4879,0,414746,0
414873,-414,58,8154,-15,15,27,9821,1,4,0,5160,181,29,26,144,0,6,0,0,0,0,0,0,-32292,0,0,0,4879,0,414756,0
414883,-418,32,8146,-15,17,22,9822,7,-1,0,5176,179,1,26,144,0,6,0,0,0,0,0,0,-32291,0,0,0,4878,0,414771,0
414893,-402,60,8146,-17,13,26,9823,3,5,2,5168,178,-14,25,144,0,6,0,0,0,0,0,0,-32292,0,0,0,4878,0,414797,0
414903,-436,76,8184,-15,12,26,9821,-12,-3,1,5160,175,-12,25,144,0,6,0,0,0,0,0,0,-32292,0,0,0,4878,0,414809,0
414913,-420,52,8162,-21,13,25,9822,2,-1,4,5184,177,20,26,144,0,6,0,0,0,0,0,0,-32292,0,0,0,4878,0,414820,0
414923,-434,80,8182,-15,12,27,9823,4,3,3,5168,179,51,26,144,0,6,0,0,0,0,0,0,-32291,0,0,0,4878,0,414827,0
414933,-450,68,8166,-17,18,26,9821,1,2,3,5176,180,62,26,144,0,6,0,0,0,0,0,0,-32292,0,0,0,4878,0,414830,0
414943,-422,76,8174,-15,14,28,9821,0,-3,2,5168,180,67,26,144,0,6,0,0,0,0,0,0,-32292,0,0,0,4879,0,414834,0
414953,-382,68,8162,-17,19,25,9821,-1,-2,6,5168,178,56,26,144,0,6,0,0,0,0,0,0,-32292,0,0,0,4878,0,414844,0
414963,-434,54,8164,-16,13,22,9821,5,2,3,5168,180,33,26,144,0,6,0,0,0,0,0,0,-32292,0,0,0,4878,0,414849,0
414973,-420,84,8174,-16,15,31,9821,0,2,2,5168,182,50,26,144,0,6,0,0,0,0,0,0,-32292,0,0,0,4880,0,414859,0
414983,-390,74,8152,-19,16,29,9821,-1,4,6,5168,182,46,25,144,0,6,0,0,0,0,0,0,-32292,0,0,0,4879,0,414867,0
414993,-410,74,8176,-15,14,25,9822,2,2,4,5168,180,49,26,144,0,6,0,0,0,0,0,0,-32292,0,0,0,4878,0,414876,0
415003,-442,70,8162,-14,13,24,9822,0,1,0,5168,182,15,26,144,0,6,0,0,0,0,0,0,-32291,0,0,0,4878,0,414913,0
415013,-424,52,8170,-22,12,27,9821,3,-1,3,5184,182,25,25,144,0,6,0,0,0,0,0,0,-32292,0,0,0,4878,0,414919,0
415023,-414,72,8174,-18,13,26,9822,0,-1,3,5160,182,38,25,144,0,6,0,0,0,0,0,0,-32292,0,0,0,4878,0,414927,0
415033,-390,66,8162,-12,19,26,9821,3,4,0,5168,178,32,26,144,0,6,0,0,0,0,0,0,-32292,0,0,0,4878,0,414932,0
415043,-428,72,8160,-20,15,23,9822,-4,-2,1,5168,179,51,25,144,0,6,0,0,0,0,0,0,-32292,0,0,0,4878,0,414948,0
415053,-430,94,8162,-17,13,28,9821,0,-1,4,5160,177,49,26,144,0,6,0,0,0,0,0,0,-32292,0,0,0,4879,0,414950,0
415063,-416,66,8150,-14,18,28,9821,0,2,2,5176,176,86,25,144,0,6,0,0,0,0,0,0,-32292,0,0,0,4878,0,414955,0
415073,-428,66,8160,-16,11,27,9822,-3,1,1,5168,178,68,25,144,0,6,0,0,0,0,0,0,-32293,0,0,0,4878,0,414962,0
415083,-402,66,8150,-17,12,24,9822,3,-2,1,5160,173,32,26,144,0,6,0,0,0,0,0,0,-32291,0,0,0,4878,0,414965,0
415093,-446,48,8170,-16,13,28,9820,-9,-2,4,5168,175,22,26,144,0,6,0,0,0,0,0,0,-32293,0,0,0,4878,0,414984,0
415103,-394,76,8170,-13,16,29,9822,2,-2,2,5168,179,34,25,144,0,6,0,0,0,0,0,0,-32293,0,0,0,4879,0,414987,0
415113,-410,68,8184,-17,15,26,9822,1,1,3,5184,186,60,26,144,0,6,0,0,0,0,0,0,-32293,0,0,0,4878,0,414994,0
415123,-436,60,8184,-13,16,25,9821,-3,-4,0,5168,189,79,26,144,0,6,0,0,0,0,0,0,-32294,0,0,0,4878,0,415004,0
415133,-406,64,8160,-17,18,27,9821,0,-4,2,5168,185,55,26,144,0,6,0,0,0,0,0,0,-32292,0,0,0,4878,0,415045,0
415143,-406,78,8164,-18,19,24,9822,3,-4,3,5168,182,61,26,144,0,6,0,0,0,0,0,0,-32292,0,0,0,4879,0,415060,0
415153,-416,44,8160,-17,7,24,9822,6,-3,4,5160,183,49,26,144,0,6,0,0,0,0,0,0,-32292,0,0,0,4878,0,415063,0
415163,-422,58,8182,-19,16,24,9822,1,-1,4,5184,183,54,26,144,0,6,0,0,0,0,0,0,-32292,0,0,0,4878,0,415068,0
415173,-438,76,8176,-21,15,27,9821,-4,0,0,5160,184,54,26,144,0,6,0,0,0,0,0,0,-32293,0,0,0,4878,0,415073,0
415183,-416,60,8162,-15,20,25,9821,3,2,3,5168,182,59,26,144,0,6,0,0,0,0,0,0,-32291,0,0,0,4879,0,415078,0
415193,-394,60,8162,-14,15,25,9821,0,3,-3,5168,180,55,26,144,0,6,0,0,0,0,0,0,-32292,0,0,0,4878,0,415097,0
415203,-414,64,8158,-11,15,26,9822,0,-2,9,5168,176,41,26,144,0,6,0,0,0,0,0,0,-32292,0,0,0,4878,0,415099,0
415213,-406,50,8174,-17,18,28,9823,5,0,2,5184,176,27,25,144,0,6,0,0,0,0,0,0,-32292,0,0,0,4879,0,415115,0
415223,-404,72,8162,-13,15,25,9822,1,1,4,5168,178,39,26,144,0,6,0,0,0,0,0,0,-32291,0,0,0,4878,0,415126,0
415233,-410,68,8180,-14,19,26,9821,-6,2,0,5160,180,68,26,144,0,6,0,0,0,0,0,0,-32291,0,0,0,4879,0,415133,0
415243,-428,52,8162,-19,14,27,9821,-2,-2,1,5168,179,50,26,144,0,6,0,0,0,0,0,0,-32293,0,0,0,4878,0,415138,0
415253,-410,56,8172,-20,15,31,9822,1,-1,-1,5168,178,34,26,144,0,6,0,0,0,0,0,0,-32293,0,0,0,4879,0,415143,0
415263,-432,74,8154,-15,14,27,9821,-1,-1,0,5176,178,7,26,144,0,6,0,0,0,0,0,0,-32292,0,0,0,4878,0,415148,0
415273,-446,58,8166,-18,15,31,9822,1,-3,5,5160,180,5,26,144,0,6,0,0,0,0,0,0,-32292,0,0,0,4878,0,415157,0
415283,-426,62,8144,-12,19,26,9821,-5,3,5,5168,176,31,26,144,0,6,0,0,0,0,0,0,-32292,0,0,0,4877,0,415164,0
415293,-390,56,8180,-16,17,24,9821,-2,2,3,5168,178,63,26,144,0,6,0,0,0,0,0,0,-32292,0,0,0,4878,0,415178,0
415303,-404,64,8170,-16,14,29,9820,-8,1,6,5168,182,58,26,144,0,6,0,0,0,0,0,0,-32292,0,0,0,4879,0,415186,0
415313,-430,54,8172,-17,18,27,9820,-8,0,5,5168,182,57,26,144,0,6,0,0,0,0,0,0,-32293,0,0,0,4878,0,415197,0
415323,-420,58,8158,-19,20,29,9822,0,3,2,5168,182,57,26,144,0,6,0,0,0,0,0,0,-32292,0,0,0,4879,0,415204,0
415333,-424,38,8156,-15,15,25,9823,0,1,5,5160,181,69,25,144,0,6,0,0,0,0,0,0,-32292,0,0,0,4878,0,415237,0
415343,-432,50,8172,-17,17,27,9822,-1,2,3,5168,181,54,26,144,0,6,0,0,0,0,0,0,-32292,0,0,0,4878,0,415250,0
415353,-432,50,8162,-12,14,29,9821,-1,1,4,5168,178,47,25,144,0,6,0,0,0,0,0,0,-32292,0,0,0,4878,0,415257,0
415363,-406,64,8160,-20,13,28,9821,-1,1,0,5176,180,61,25,144,0,6,0,0,0,0,0,0,-32292,0,0,0,4878,0,415265,0
415373,-424,52,8174,-19,14,23,9821,3,3,3,5168,179,77,26,144,0,6,0,0,0,0,0,0,-32292,0,0,0,4878,0,415270,0
415383,-396,70,8142,-13,11,24,9820,-14,0,4,5160,182,69,26,144,0,6,0,0,0,0,0,0,-32292,0,0,0,4879,0,415274,0
415393,-444,48,8186,-14,12,24,9823,4,0,0,5168,179,58,26,144,0,6,0,0,0,0,0,0,-32292,0,0,0,4878,0,415279,0
415403,-424,54,8160,-13,18,24,9821,0,2,5,5168,182,62,26,144,0,6,0,0,0,0,0,0,-32292,0,0,0,4879,0,415287,0
415413,-430,82,8162,-16,16,24,9821,-7,0,0,5176,182,60,26,144,0,6,0,0,0,0,0,0,-32292,0,0,0,4878,0,415294,0
415423,-422,64,8170,-16,17,25,9822,7,-2,0,5168,178,41,26,144,0,6,0,0,0,0,0,0,-32292,0,0,0,4878,0,415315,0
415433,-446,54,8178,-27,16,24,9822,6,3,4,5168,178,28,26,144,0,6,0,0,0,0,0,0,-32292,0,0,0,4879,0,415340,0
415443,-430,62,8166,-22,14,27,9822,1,1,3,5168,175,32,25,144,0,6,0,0,0,0,0,0,-32292,0,0,0,4878,0,415342,0
415453,-410,66,8150,-17,11,29,9821,-1,-3,4,5168,178,44,26,144,0,6,0,0,0,0,0,0,-32292,0,0,0,4878,0,415347,0
415463,-408,38,8172,-18,14,29,9822,0,-3,1,5176,178,51,26,144,0,6,0,0,0,0,0,0,-32292,0,0,0,4878,0,415357,0
415473,-420,60,8160,-17,15,25,9821,-3,1,2,5160,182,54,26,144,0,6,0,0,0,0,0,0,-32292,0,0,0,4878,0,415359,0
415483,-396,64,8158,-19,18,30,9822,-5,1,4,5160,183,77,25,144,0,6,0,0,0,0,0,0,-32292,0,0,0,4878,0,415365,0
415493,-400,68,8160,-16,15,29,9822,-1,-2,-1,5168,179,55,25,144,0,6,0,0,0,0,0,0,-32292,0,0,0,4878,0,415376,0
415503,-406,74,8160,-17,20,24,9821,0,3,2,5168,180,63,26,144,0,6,0,0,0,0,0,0,-32292,0,0,0,4880,0,415386,0
415513,-430,62,8166,-14,13,29,9821,1,-1,3,5176,182,44,26,144,0,6,0,0,0,0,0,0,-32292,0,0,0,4879,0,415401,0
415523,-432,78,8184,-17,14,25,9821,-8,2,1,5168,182,43,26,144,0,6,0,0,0,0,0,0,-32292,0,0,0,4879,0,415406,0
415533,-444,72,8154,-14,18,27,9822,1,2,3,5176,178,25,26,144,0,6,0,0,0,0,0,0,-32291,0,0,0,4879,0,415414,0
415543,-422,46,8170,-15,18,25,9822,-1,-1,5,5168,175,1,26,144,0,6,0,0,0,0,0,0,-32291,0,0,0,4878,0,415424,0
415553,-398,62,8158,-13,12,27,9821,-5,0,3,5168,175,-12,26,144,0,6,0,0,0,0,0,0,-32292,0,0,0,4879,0,415435,0
415563,-438,60,8176,-15,13,27,9821,-5,3,2,5168,173,-15,26,144,0,6,0,0,0,0,0,0,-32292,0,0,0,4878,0,415446,0
415573,-418,60,8172,-20,13,25,9821,0,-2,5,5168,170,-7,26,144,0,6,0,0,0,0,0,0,-32292,0,0,0,4879,0,415454,0
415583,-442,52,8148,-18,19,28,9822,2,3,4,5168,169,-8,26,144,0,6,0,0,0,0,0,0,-32292,0,0,0,4879,0,415464,0
415593,-428,32,8172,-16,11,29,9822,0,4,3,5168,173,-29,26,144,0,6,0,0,0,0,0,0,-32292,0,0,0,4879,0,415474,0
415603,-442,68,8158,-15,16,30,9821,-7,8,5,5168,173,-37,26,144,0,6,0,0,0,0,0,0,-32292,0,0,0,4879,0,415485,0
415613,-440,40,8176,-15,9,25,9822,1,-5,6,5160,170,-48,26,144,0,6,0,0,0,0,0,0,-32291,0,0,0,4879,0,415496,0
415623,-404,42,8178,-17,15,24,9821,0,3,3,5160,173,-42,26,144,0,6,0,0,0,0,0,0,-32291,0,0,0,4879,0,415522,0
415633,-420,76,8150,-15,9,27,9821,-2,-2,4,5176,177,-52,26,144,0,6,0,0,0,0,0,0,-32292,0,0,0,4879,0,415533,0
415643,-436,36,8166,-18,12,26,9822,1,-3,3,5168,180,-41,26,144,0,6,0,0,0,0,0,0,-32292,0,0,0,4879,0,415538,0
415653,-450,80,8178,-17,9,28,9821,-1,-1,2,5168,179,-29,26,144,0,6,0,0,0,0,0,0,-32292,0,0,0,4879,0,415540,0
415663,-414,42,8164,-17,10,28,9821,-3,1,1,5160,178,-14,26,144,0,6,0,0,0,0,0,0,-32292,0,0,0,4879,0,415547,0
415673,-400,84,8144,-16,17,27,9821,2,-4,0,5168,178,-22,26,144,0,6,0,0,0,0,0,0,-32292,0,0,0,4878,0,415556,0
415683,-398,60,8170,-14,15,27,9821,-2,-1,1,5168,178,-36,26,144,0,6,0,0,0,0,0,0,-32293,0,0,0,4878,0,415565,0
415693,-374,60,8166,-21,8,27,9821,-1,-4,2,5168,175,-39,26,144,0,6,0,0,0,0,0,0,-32293,0,0,0,4878,0,415582,0
415703,-374,62,8184,-18,13,30,9821,0,-2,5,5168,170,-21,26,144,0,6,0,0,0,0,0,0,-32292,0,0,0,4879,0,415587,0
415713,-406,56,8162,-15,13,25,9822,3,1,2,5176,170,-7,26,144,0,6,0,0,0,0,0,0,-32292,0,0,0,4879,0,415601,0
415723,-416,66,8152,-17,17,26,9823,-4,1,4,5160,176,-1,26,144,0,6,0,0,0,0,0,0,-32292,0,0,0,4877,0,415606,0
415733,-434,66,8178,-17,13,31,9821,-1,0,2,5168,181,-9,26,144,0,6,0,0,0,0,0,0,-32293,0,0,0,4877,0,415616,0
415743,-418,48,8154,-18,14,26,9822,1,4,2,5168,177,-34,26,144,0,6,0,0,0,0,0,0,-32294,0,0,0,4878,0,415624,0
415753,-398,46,8138,-14,14,24,9822,0,3,7,5168,170,-75,26,144,0,6,0,0,0,0,0,0,-32292,0,0,0,4879,0,415635,0
415763,-450,84,8166,-12,12,31,9822,-2,2,4,5176,168,-84,26,144,0,6,0,0,0,0,0,0,-32293,0,0,0,4878,0,415649,0
415773,-438,82,8176,-24,15,31,9821,1,-4,2,5160,170,-76,26,144,0,6,0,0,0,0,0,0,-32292,0,0,0,4879,0,415668,0
415783,-410,60,8170,-14,14,23,9821,-6,-1,11,5168,172,-45,26,144,0,6,0,0,0,0,0,0,-32293,0,0,0,4879,0,415671,0
415793,-384,88,8148,-18,12,25,9822,1,-1,3,5168,169,-40,26,144,0,6,0,0,0,0,0,0,-32292,0,0,0,4879,0,415677,0
415803,-444,62,8158,-15,19,23,9821,-3,-3,4,5168,171,-69,26,144,0,6,0,0,0,0,0,0,-32291,0,0,0,4879,0,415684,0
415813,-434,56,8178,-19,13,25,9822,2,-1,6,5176,173,-72,26,144,0,6,0,0,0,0,0,0,-32292,0,0,0,4879,0,415699,0
415823,-414,50,8174,-12,16,27,9821,1,-2,2,5168,172,-69,26,144,0,6,0,0,0,0,0,0,-32292,0,0,0,4879,0,415704,0
415833,-424,68,8182,-14,16,25,9822,-1,-1,5,5168,173,-32,26,144,0,6,0,0,0,0,0,0,-32292,0,0,0,4879,0,415715,0
415843,-424,80,8164,-17,15,29,9821,3,-2,4,5176,170,-39,26,144,0,6,0,0,0,0,0,0,-32294,0,0,0,4879,0,415728,0
415853,-414,54,8162,-14,14,27,9821,-4,3,8,5168,174,-48,26,144,0,6,0,0,0,0,0,0,-32292,0,0,0,4878,0,415736,0
415863,-412,72,8166,-11,16,24,9822,1,3,5,5176,173,-50,26,144,0,6,0,0,0,0,0,0,-32293,0,0,0,4879,0,415746,0
415873,-410,52,8148,-20,19,24,9822,1,3,5,5160,170,-61,26,144,0,6,0,0,0,0,0,0,-32293,0,0,0,4879,0,415754,0
415883,-418,68,8178,-17,17,27,9822,4,2,3,5160,173,-45,26,144,0,6,0,0,0,0,0,0,-32292,0,0,0,4879,0,415766,0
415893,-452,52,8164,-17,16,26,9821,0,-1,5,5168,172,-62,26,144,0,6,0,0,0,0,0,0,-32293,0,0,0,4879,0,415774,0
415903,-428,52,8148,-11,13,28,9822,1,-3,3,5168,174,-60,26,144,0,6,0,0,0,0,0,0,-32291,0,0,0,4879,0,415784,0
415913,-426,30,8146,-22,11,27,9821,1,1,2,5168,174,-51,26,144,0,6,0,0,0,0,0,0,-32292,0,0,0,4879,0,415794,0
415923,-454,70,8162,-17,13,29,9822,5,1,0,5168,169,-61,26,144,0,6,0,0,0,0,0,0,-32292,0,0,0,4879,0,415808,0
415933,-432,50,8150,-16,13,25,9821,-2,-3,5,5168,170,-64,26,144,0,6,0,0,0,0,0,0,-32292,0,0,0,4879,0,415816,0
415943,-384,60,8150,-15,13,25,9820,0,-4,4,5176,170,-43,26,144,0,6,0,0,0,0,0,0,-32292,0,0,0,4879,0,415833,0
415953,-426,56,8154,-21,15,24,9821,-3,1,4,5168,176,-15,26,144,0,6,0,0,0,0,0,0,-32292,0,0,0,4878,0,415844,0
415963,-428,60,8170,-14,22,27,9823,10,-1,0,5176,180,-19,26,144,0,6,0,0,0,0,0,0,-32292,0,0,0,4879,0,415901,0
415973,-410,72,8188,-12,13,29,9822,1,-1,0,5168,178,-60,26,144,0,6,0,0,0,0,0,0,-32292,0,0,0,4879,0,415914,0
415983,-408,60,8204,-17,18,29,9822,3,-2,1,5168,178,-50,26,144,0,6,0,0,0,0,0,0,-32292,0,0,0,4879,0,415925,0
415993,-400,44,8188,-17,20,26,9822,9,1,3,5176,176,-37,26,144,0,6,0,0,0,0,0,0,-32292,0,0,0,4879,0,415925,0
416003,-384,36,8188,-12,16,27,9821,1,2,3,5160,177,-17,26,144,0,6,0,0,0,0,0,0,-32292,0,0,0,4879,0,415925,0
416013,-308,108,8178,-17,20,24,9821,-7,0,5,5168,175,-13,26,144,0,6,0,0,0,0,0,0,-32292,0,0,0,4879,0,415925,0
416023,-446,26,8176,-17,17,22,9822,0,-2,3,5168,176,-19,26,144,0,6,0,0,0,0,0,0,-32292,0,0,0,4879,0,415929,0
416033,-394,44,8238,-21,22,27,9822,0,-1,4,5176,179,-25,26,144,0,6,0,0,0,0,0,0,-32292,0,0,0,4878,0,415936,0
416043,-382,38,8108,-19,25,27,9822,5,1,3,5176,179,-35,26,144,0,6,0,0,0,0,0,0,-32292,0,0,0,4879,0,415939,0
416053,-388,52,8146,-18,17,23,9821,-2,-1,2,5168,173,-71,26,144,0,6,0,0,0,0,0,0,-32293,0,0,0,4879,0,415943,0
416063,-464,60,8152,-18,17,25,9823,1,-3,3,5168,168,-87,26,144,0,6,0,0,0,0,0,0,-32292,0,0,0,4879,0,415948,0
416073,-402,38,8108,-15,22,29,9822,-1,1,6,5160,170,-72,26,144,0,6,0,0,0,0,0,0,-32291,0,0,0,4879,0,415954,0
416083,-462,60,8148,-16,14,28,9822,7,4,3,5168,172,-34,26,144,0,6,0,0,0,0,0,0,-32292,0,0,0,4879,0,415964,0
416093,-424,48,8110,-15,10,27,9822,1,-1,3,5168,177,-25,26,144,0,6,0,0,0,0,0,0,-32292,0,0,0,4878,0,415987,0
416103,-440,94,8154,-17,18,32,9822,9,-3,7,5176,180,-20,26,144,0,6,0,0,0,0,0,0,-32291,0,0,0,4879,0,415997,0
416113,-438,64,8132,-15,16,27,9822,0,1,3,5176,179,-62,26,144,0,6,0,0,0,0,0,0,-32292,0,0,0,4879,0,415999,0
416123,-412,56,8156,-17,18,29,9822,1,-3,3,5168,177,-38,26,144,0,6,0,0,0,0,0,0,-32292,0,0,0,4878,0,416009,0
416133,-426,26,8192,-13,13,30,9824,2,-1,2,5168,175,-40,26,144,0,6,0,0,0,0,0,0,-32292,0,0,0,4879,0,416021,0
416143,-442,58,8172,-15,20,26,9822,-1,2,0,5176,171,-17,26,144,0,6,0,0,0,0,0,0,-32292,0,0,0,4879,0,416027,0
416153,-428,38,8170,-18,16,30,9821,1,-3,1,5168,172,-39,26,144,0,6,0,0,0,0,0,0,-32291,0,0,0,4879,0,416035,0
416163,-444,70,8160,-16,17,25,9820,-1,4,1,5168,173,-28,26,144,0,6,0,0,0,0,0,0,-32291,0,0,0,4879,0,416044,0
416173,-398,64,8158,-21,14,31,9821,1,4,1,5168,173,-17,26,144,0,6,0,0,0,0,0,0,-32292,0,0,0,4879,0,416059,0
416183,-408,70,8170,-15,14,23,9821,0,0,5,5168,171,-21,26,144,0,6,0,0,0,0,0,0,-32292,0,0,0,4879,0,416067,0
416193,-404,70,8156,-18,11,30,9822,2,1,2,5168,170,-36,26,144,0,6,0,0,0,0,0,0,-32291,0,0,0,4879,0,416075,0
416203,-428,96,8178,-18,17,27,9821,1,-2,2,5168,174,-29,26,144,0,6,0,0,0,0,0,0,-32292,0,0,0,4879,0,416090,0
416213,-412,80,8160,-17,14,28,9823,9,4,0,5168,176,-4,26,144,0,6,0,0,0,0,0,0,-32292,0,0,0,4878,0,416099,0
416223,-422,68,8176,-15,19,27,9821,0,-1,3,5168,175,-3,26,144,0,6,0,0,0,0,0,0,-32292,0,0,0,4879,0,416107,0
416233,-440,64,8194,-13,17,26,9821,-6,-3,4,5160,173,-23,26,144,0,6,0,0,0,0,0,0,-32292,0,0,0,4879,0,416114,0
416243,-446,34,8154,-12,13,24,9821,-3,2,5,5176,171,-32,26,144,0,6,0,0,0,0,0,0,-32292,0,0,0,4879,0,416125,0
416253,-380,66,8164,-16,15,25,9821,-1,2,2,5168,174,-11,26,144,0,6,0,0,0,0,0,0,-32291,0,0,0,4879,0,416140,0
416263,-414,46,8134,-14,11,29,9822,5,4,1,5176,175,-4,26,144,0,6,0,0,0,0,0,0,-32292,0,0,0,4879,0,416148,0
416273,-432,72,8162,-16,14,26,9822,0,-2,2,5168,173,-37,26,144,0,6,0,0,0,0,0,0,-32292,0,0,0,4879,0,416155,0
416283,-422,50,8154,-17,14,29,9822,3,3,3,5168,172,-58,26,144,0,6,0,0,0,0,0,0,-32293,0,0,0,4879,0,416164,0
416293,-406,42,8170,-15,19,26,9823,2,3,2,5176,173,-32,26,144,0,6,0,0,0,0,0,0,-32292,0,0,0,4878,0,416179,0
416303,-430,50,8196,-11,13,24,9822,1,1,5,5168,176,6,26,144,0,6,0,0,0,0,0,0,-32292,0,0,0,4879,0,416187,0
416313,-540,86,8364,-18,16,28,9821,-7,0,0,5160,176,-14,26,144,0,6,0,0,0,0,0,0,-32292,0,0,0,4879,0,416195,0
416323,-384,52,8316,-9,18,26,9821,-4,-2,4,5168,175,0,26,144,0,6,0,0,0,0,0,0,-32291,0,0,0,4878,0,416205,0
416333,-300,20,8222,-14,17,21,9822,-2,-6,4,5160,177,-8,26,144,0,6,0,0,0,0,0,0,-32293,0,0,0,4879,0,416230,0
416343,-510,30,8142,-15,15,29,9821,-3,2,3,5176,178,9,26,144,0,6,0,0,0,0,0,0,-32293,0,0,0,4879,0,416249,0
416353,-692,40,8252,-18,20,27,9821,3,-1,4,5168,178,-17,26,144,0,6,0,0,0,0,0,0,-32293,0,0,0,4879,0,416257,0
416363,-318,-24,8046,-17,10,22,9821,-5,-5,3,5176,173,-31,26,144,0,6,0,0,0,0,0,0,-32293,0,0,0,4879,0,416259,0
416373,-92,72,8330,-17,9,23,9822,3,2,5,5176,171,-39,26,144,0,6,0,0,0,0,0,0,-32292,0,0,0,4878,0,416267,0
416383,-470,108,8160,-20,18,24,9821,-2,4,4,5168,173,-11,26,144,0,6,0,0,0,0,0,0,-32292,0,0,0,4879,0,416283,0
416393,-122,38,8084,-11,36,29,9822,0,1,1,5176,174,14,26,144,0,6,0,0,0,0,0,0,-32291,0,0,0,4879,0,416288,0
416403,-618,144,8004,-17,9,28,9821,1,2,2,5168,171,11,26,144,0,6,0,0,0,0,0,0,-32292,0,0,0,4879,0,416305,0
416413,-488,76,8154,-17,21,27,9822,0,0,0,5160,171,-31,26,144,0,6,0,0,0,0,0,0,-32292,0,0,0,4878,0,416317,0
416423,-480,28,8126,-17,14,26,9821,-3,2,9,5176,172,-24,26,144,0,6,0,0,0,0,0,0,-32291,0,0,0,4879,0,416328,0
416433,-604,52,8108,-13,11,30,9821,-3,-1,4,5176,173,-15,25,144,0,6,0,0,0,0,0,0,-32292,0,0,0,4879,0,416333,0
416443,-410,64,8254,-16,12,26,9821,-2,1,0,5176,172,-29,26,144,0,6,0,0,0,0,0,0,-32291,0,0,0,4879,0,416335,0
416453,-466,42,8124,-17,14,27,9820,-8,3,3,5168,172,-35,26,144,0,6,0,0,0,0,0,0,-32292,0,0,0,4878,0,416340,0
416463,-382,48,8156,-18,16,25,9821,0,5,0,5176,174,-44,26,144,0,6,0,0,0,0,0,0,-32293,0,0,0,4879,0,416347,0
416473,-370,64,8192,-16,16,26,9820,-2,-4,1,5176,173,-26,26,144,0,6,0,0,0,0,0,0,-32291,0,0,0,4879,0,416354,0
416483,-444,68,8186,-16,10,28,9822,0,-2,2,5168,175,-5,26,144,0,6,0,0,0,0,0,0,-32292,0,0,0,4879,0,416367,0
416493,-364,54,8090,-14,18,25,9821,1,3,0,5176,170,-28,26,144,0,6,0,0,0,0,0,0,-32291,0,0,0,4880,0,416375,0
416503,-422,70,8162,-20,17,28,9822,5,6,2,5168,170,-25,26,144,0,6,0,0,0,0,0,0,-32292,0,0,0,4879,0,416387,0
416513,-432,52,8194,-17,12,27,9822,-1,1,2,5168,173,6,26,144,0,6,0,0,0,0,0,0,-32291,0,0,0,4878,0,416395,0
416523,-470,66,8128,-15,16,23,9821,1,0,2,5168,173,9,26,144,0,6,0,0,0,0,0,0,-32293,0,0,0,4879,0,416409,0
416533,-422,54,8178,-16,18,29,9821,0,0,0,5160,173,5,26,144,0,6,0,0,0,0,0,0,-32292,0,0,0,4880,0,416416,0
416543,-484,58,8144,-21,9,25,9822,5,-3,0,5176,172,-5,25,144,0,6,0,0,0,0,0,0,-32292,0,0,0,4879,0,416427,0
416553,-460,48,8188,-17,14,28,9821,3,4,4,5176,177,-12,26,144,0,6,0,0,0,0,0,0,-32292,0,0,0,4880,0,416435,0
416563,-440,56,8150,-17,14,25,9821,0,5,4,5160,178,16,25,144,0,6,0,0,0,0,0,0,-32292,0,0,0,4879,0,416444,0
416573,-414,60,8168,-21,12,29,9820,-3,2,0,5176,177,11,26,144,0,6,0,0,0,0,0,0,-32292,0,0,0,4879,0,416454,0
416583,-422,74,8166,-14,13,27,9821,1,2,4,5168,173,-13,26,144,0,6,0,0,0,0,0,0,-32292,0,0,0,4879,0,416464,0
416593,-394,62,8172,-20,13,25,9821,-1,4,3,5168,174,1,26,144,0,6,0,0,0,0,0,0,-32292,0,0,0,4879,0,416474,0
416603,-396,66,8164,-21,16,24,9822,0,-2,5,5168,178,0,26,144,0,6,0,0,0,0,0,0,-32292,0,0,0,4879,0,416484,0
416613,-420,64,8166,-16,19,25,9822,3,1,4,5168,182,2,26,144,0,6,0,0,0,0,0,0,-32292,0,0,0,4879,0,416510,0
416623,-422,56,8180,-11,12,26,9822,7,1,3,5176,175,-24,26,144,0,6,0,0,0,0,0,0,-32292,0,0,0,4879,0,416524,0
416633,-440,60,8144,-16,13,29,9822,1,2,2,5168,175,-38,25,144,0,6,0,0,0,0,0,0,-32292,0,0,0,4879,0,416529,0
416643,-438,84,8154,-17,14,29,9821,-4,5,2,5168,174,-20,25,144,0,6,0,0,0,0,0,0,-32291,0,0,0,4878,0,416532,0
416653,-424,64,8144,-17,12,26,9822,-1,0,5,5176,173,-4,25,144,0,6,0,0,0,0,0,0,-32292,0,0,0,4878,0,416534,0
416663,-422,66,8172,-12,21,29,9822,-2,2,7,5176,172,-9,26,144,0,6,0,0,0,0,0,0,-32292,0,0,0,4879,0,416547,0
416673,-424,26,8150,-15,20,27,9821,1,-2,1,5176,173,-13,26,144,0,6,0,0,0,0,0,0,-32292,0,0,0,4878,0,416555,0
416683,-422,52,8162,-18,8,24,9821,-1,-1,-1,5168,171,-7,26,144,0,6,0,0,0,0,0,0,-32291,0,0,0,4879,0,416564,0
416693,-412,72,8174,-13,11,26,9821,-6,-3,1,5168,176,2,26,144,0,6,0,0,0,0,0,0,-32292,0,0,0,4879,0,416585,0
416703,-388,68,8176,-18,17,27,9821,-3,0,4,5168,176,5,26,144,0,6,0,0,0,0,0,0,-32292,0,0,0,4879,0,416592,0
416713,-388,68,8186,-15,17,28,9821,-10,-2,4,5168,176,-23,26,144,0,6,0,0,0,0,0,0,-32292,0,0,0,4879,0,416597,0
416723,-362,68,8150,-22,11,22,9822,4,-2,4,5168,178,-3,25,144,0,6,0,0,0,0,0,0,-32291,0,0,0,4879,0,416605,0
416733,-418,60,8156,-18,18,24,9820,-5,-2,3,5168,176,23,26,144,0,6,0,0,0,0,0,0,-32292,0,0,0,4878,0,416623,0
416743,-410,46,8172,-19,14,26,9821,-1,-1,0,5168,170,16,26,144,0,6,0,0,0,0,0,0,-32292,0,0,0,4879,0,416630,0
416753,-454,62,8162,-18,17,24,9821,-5,0,4,5168,168,-12,26,144,0,6,0,0,0,0,0,0,-32292,0,0,0,4878,0,416637,0
416763,-442,68,8166,-13,12,25,9821,1,-2,3,5168,170,-9,26,144,0,6,0,0,0,0,0,0,-32291,0,0,0,4878,0,416645,0
416773,-456,52,8176,-15,13,25,9821,1,2,5,5176,175,2,25,144,0,6,0,0,0,0,0,0,-32292,0,0,0,4879,0,416663,0
416783,-420,58,8158,-23,14,29,9821,-8,-2,3,5160,175,19,25,144,0,6,0,0,0,0,0,0,-32292,0,0,0,4879,0,416678,0
416793,-408,50,8172,-15,18,29,9822,0,-2,-1,5168,174,8,26,144,0,6,0,0,0,0,0,0,-32292,0,0,0,4877,0,416681,0
416803,-418,56,8154,-17,18,28,9822,4,-1,2,5176,171,-20,26,144,0,6,0,0,0,0,0,0,-32292,0,0,0,4878,0,416687,0
416813,-396,62,8176,-14,16,25,9822,-1,3,4,5168,171,-27,26,144,0,6,0,0,0,0,0,0,-32292,0,0,0,4878,0,416694,0
416823,-402,70,8166,-18,20,29,9822,0,2,1,5168,171,6,26,144,0,6,0,0,0,0,0,0,-32292,0,0,0,4879,0,416708,0
416833,-444,76,8150,-17,14,27,9820,-7,-2,5,5168,171,9,26,144,0,6,0,0,0,0,0,0,-32292,0,0,0,4879,0,416727,0
416843,-454,26,8192,-18,12,27,9821,-4,1,1,5168,172,23,26,144,0,6,0,0,0,0,0,0,-32291,0,0,0,4879,0,416729,0
416853,-468,74,8160,-18,17,27,9821,-2,1,3,5176,175,3,26,144,0,6,0,0,0,0,0,0,-32292,0,0,0,4879,0,416752,0
416863,-420,52,8156,-17,18,25,9821,-2,0,0,5168,179,17,26,144,0,6,0,0,0,0,0,0,-32292,0,0,0,4879,0,416755,0
416873,-418,70,8164,-16,16,27,9822,-1,1,2,5168,175,20,26,144,0,6,0,0,0,0,0,0,-32292,0,0,0,4879,0,416757,0
416883,-374,72,8156,-21,14,26,9823,6,4,3,5168,173,19,26,144,0,6,0,0,0,0,0,0,-32293,0,0,0,4879,0,416767,0
416893,-386,52,8176,-12,10,24,9822,1,3,1,5168,168,20,26,144,0,6,0,0,0,0,0,0,-32292,0,0,0,4878,0,416777,0
416903,-386,28,8156,-13,17,30,9822,4,1,6,5184,172,41,25,144,0,6,0,0,0,0,0,0,-32292,0,0,0,4879,0,416791,0
416913,-402,66,8148,-15,18,27,9822,-1,0,4,5168,178,49,25,144,0,6,0,0,0,0,0,0,-32292,0,0,0,4879,0,416807,0
416923,-422,38,8172,-20,16,27,9820,-2,-7,0,5168,180,36,26,144,0,6,0,0,0,0,0,0,-32291,0,0,0,4879,0,416809,0
416933,-396,86,8168,-17,17,29,9821,0,-3,5,5168,182,23,25,144,0,6,0,0,0,0,0,0,-32292,0,0,0,4879,0,416817,0
416943,-432,58,8172,-16,18,27,9821,-3,0,0,5168,179,13,26,144,0,6,0,0,0,0,0,0,-32292,0,0,0,4879,0,416838,0
416953,-408,60,8162,-19,14,27,9821,0,-2,5,5176,183,7,26,144,0,6,0,0,0,0,0,0,-32293,0,0,0,4878,0,416840,0
416963,-428,68,8180,-14,18,24,9822,1,1,3,5168,179,25,26,144,0,6,0,0,0,0,0,0,-32293,0,0,0,4878,0,416848,0
416973,-412,76,8166,-14,13,25,9821,4,1,-1,5176,176,-1,26,144,0,6,0,0,0,0,0,0,-32293,0,0,0,4879,0,416857,0
416983,-434,46,8152,-18,12,26,9822,0,-1,3,5168,174,-1,26,144,0,6,0,0,0,0,0,0,-32293,0,0,0,4879,0,416865,0
416993,-398,44,8168,-13,16,26,9821,-6,-5,3,5168,175,1,25,144,0,6,0,0,0,0,0,0,-32293,0,0,0,4879,0,416875,0
417003,-422,62,8176,-18,13,24,9821,0,2,3,5176,176,0,26,144,0,6,0,0,0,0,0,0,-32293,0,0,0,4878,0,416886,0
417013,-424,60,8156,-17,15,29,9821,2,5,3,5176,178,-5,26,144,0,6,0,0,0,0,0,0,-32294,0,0,0,4878,0,416897,0
417023,-386,56,8198,-16,17,24,9822,-1,1,3,5168,178,-6,25,144,0,6,0,0,0,0,0,0,-32291,0,0,0,4879,0,416904,0
417033,-442,72,8176,-18,16,27,9821,-3,0,8,5160,178,28,26,144,0,6,0,0,0,0,0,0,-32292,0,0,0,4879,0,416914,0
417043,-462,66,8172,-10,18,30,9821,-3,-1,2,5168,178,31,26,144,0,6,0,0,0,0,0,0,-32292,0,0,0,4878,0,416927,0
417053,-426,48,8168,-12,14,25,9821,-9,-1,3,5168,178,24,26,144,0,6,0,0,0,0,0,0,-32291,0,0,0,4879,0,416939,0
417063,-484,48,8142,-18,8,26,9822,-3,2,0,5168,176,14,26,144,0,6,0,0,0,0,0,0,-32292,0,0,0,4879,0,416945,0
417073,-452,60,8142,-18,15,30,9821,1,0,0,5160,175,16,26,144,0,6,0,0,0,0,0,0,-32292,0,0,0,4878,0,416958,0
417083,-432,42,8160,-13,20,26,9821,-6,-1,6,5176,177,16,25,144,0,6,0,0,0,0,0,0,-32292,0,0,0,4879,0,416967,0
417093,-410,56,8158,-16,13,29,9822,-2,-5,0,5168,178,29,25,144,0,6,0,0,0,0,0,0,-32292,0,0,0,4879,0,416989,0
417103,-410,52,8178,-14,16,25,9822,6,2,3,5176,176,34,26,144,0,6,0,0,0,0,0,0,-32292,0,0,0,4879,0,416997,0
417113,-440,84,8164,-19,15,29,9821,-1,-5,4,5168,181,53,26,144,0,6,0,0,0,0,0,0,-32292,0,0,0,4878,0,416999,0
417123,-402,48,8194,-14,20,24,9821,0,6,1,5168,181,57,26,144,0,6,0,0,0,0,0,0,-32292,0,0,0,4879,0,417007,0
417133,-454,70,8186,-14,11,26,9821,1,-1,3,5168,180,45,26,144,0,6,0,0,0,0,0,0,-32291,0,0,0,4879,0,417023,0
417143,-410,52,8202,-13,13,26,9822,4,-2,2,5160,177,46,26,144,0,6,0,0,0,0,0,0,-32292,0,0,0,4880,0,417041,0
417153,-440,52,8176,-17,12,29,9822,9,7,5,5168,179,43,26,144,0,6,0,0,0,0,0,0,-32292,0,0,0,4879,0,417043,0
417163,-434,48,8158,-18,18,29,9821,-7,2,8,5176,182,34,26,144,0,6,0,0,0,0,0,0,-32293,0,0,0,4879,0,417046,0
417173,-406,90,8166,-19,16,31,9821,-5,2,3,5160,178,1,26,144,0,6,0,0,0,0,0,0,-32292,0,0,0,4879,0,417054,0
417183,-438,24,8160,-15,10,25,9821,3,4,4,5176,177,10,26,144,0,6,0,0,0,0,0,0,-32292,0,0,0,4879,0,417070,0
417193,-440,62,8164,-11,14,27,9821,3,-2,2,5160,176,4,26,144,0,6,0,0,0,0,0,0,-32292,0,0,0,4878,0,417077,0
417203,-424,50,8170,-18,14,26,9821,-6,1,2,5176,180,28,26,144,0,6,0,0,0,0,0,0,-32292,0,0,0,4879,0,417085,0
417213,-426,32,8176,-19,19,27,9821,-3,3,4,5168,179,30,26,144,0,6,0,0,0,0,0,0,-32292,0,0,0,4878,0,417103,0
417223,-390,70,8162,-17,16,28,9822,5,2,0,5168,179,2,26,144,0,6,0,0,0,0,0,0,-32292,0,0,0,4880,0,417111,0
417233,-362,74,8242,-20,22,26,9820,-5,2,5,5168,179,-7,26,144,0,6,0,0,0,0,0,0,-32292,0,0,0,4879,0,417117,0
417243,-406,96,8142,-20,16,29,9821,1,-4,3,5168,176,-3,26,144,0,6,0,0,0,0,0,0,-32292,0,0,0,4879,0,417124,0
417253,-416,54,8160,-13,12,28,9821,-4,-3,1,5176,179,8,26,144,0,6,0,0,0,0,0,0,-32292,0,0,0,4879,0,417177,0
417263,-436,36,8154,-17,13,29,9822,6,0,5,5168,181,15,25,144,0,6,0,0,0,0,0,0,-32293,0,0,0,4879,0,417198,0
417273,-246,18,8204,-16,12,29,9821,2,-4,1,5168,184,55,26,144,0,6,0,0,0,0,0,0,-32292,0,0,0,4879,0,417203,0
417283,-426,16,8064,-21,13,25,9822,8,1,1,5184,179,66,26,144,0,6,0,0,0,0,0,0,-32293,0,0,0,4879,0,417208,0
417293,-346,80,8254,-16,25,23,9822,2,1,2,5168,181,74,26,144,0,6,0,0,0,0,0,0,-32292,0,0,0,4879,0,417211,0
417303,-466,66,8016,-21,19,27,9821,-1,2,6,5176,183,46,26,144,0,6,0,0,0,0,0,0,-32292,0,0,0,4879,0,417211,0
417313,-434,80,8154,-21,22,26,9822,1,-6,5,5176,183,46,26,144,0,6,0,0,0,0,0,0,-32292,0,0,0,4879,0,417211,0
417323,-532,74,8110,-16,13,25,9822,-2,-10,2,5160,177,33,26,144,0,6,0,0,0,0,0,0,-32292,0,0,0,4877,0,417213,0
417333,-468,40,8112,-11,19,28,9823,8,-1,7,5168,176,28,25,144,0,6,0,0,0,0,0,0,-32292,0,0,0,4878,0,417215,0
417343,-402,56,8124,-15,10,28,9821,-3,-1,2,5168,175,12,25,144,0,6,0,0,0,0,0,0,-32291,0,0,0,4879,0,417225,0
417353,-434,72,8150,-17,7,29,9821,0,3,2,5168,178,31,25,144,0,6,0,0,0,0,0,0,-32292,0,0,0,4879,0,417241,0
417363,-414,72,8188,-17,15,29,9822,6,-8,6,5176,179,38,25,144,0,6,0,0,0,0,0,0,-32292,0,0,0,4878,0,417246,0
417373,-404,52,8140,-17,21,29,9822,0,-3,2,5168,181,32,25,144,0,6,0,0,0,0,0,0,-32292,0,0,0,4879,0,417257,0
417383,-418,58,8184,-13,12,28,9821,-1,-1,5,5176,184,34,25,144,0,6,0,0,0,0,0,0,-32292,0,0,0,4879,0,417267,0
417393,-472,68,8180,-17,12,30,9822,5,5,1,5168,180,-6,25,144,0,6,0,0,0,0,0,0,-32292,0,0,0,4878,0,417292,0
417403,-414,38,8152,-17,16,25,9822,5,0,4,5168,180,10,25,144,0,6,0,0,0,0,0,0,-32292,0,0,0,4879,0,417303,0
417413,-444,102,8180,-17,8,24,9821,-5,1,3,5168,180,16,25,144,0,6,0,0,0,0,0,0,-32293,0,0,0,4879,0,417311,0
417423,-434,56,8168,-18,19,28,9822,1,-4,3,5168,184,39,25,144,0,6,0,0,0,0,0,0,-32292,0,0,0,4879,0,417317,0
417433,-424,50,8146,-14,14,28,9821,0,0,6,5176,181,34,26,144,0,6,0,0,0,0,0,0,-32292,0,0,0,4879,0,417327,0
417443,-384,98,8110,-20,16,26,9821,-6,-5,2,5168,182,51,26,144,0,6,0,0,0,0,0,0,-32292,0,0,0,4879,0,417329,0
417453,-420,72,8210,-16,14,27,9822,6,-2,2,5168,181,54,26,144,0,6,0,0,0,0,0,0,-32292,0,0,0,4879,0,417334,0
417463,-466,56,8146,-17,16,26,9822,-1,-2,6,5168,178,46,26,144,0,6,0,0,0,0,0,0,-32292,0,0,0,4879,0,417346,0
417473,-452,70,8166,-12,9,23,9822,1,0,0,5160,181,46,26,144,0,6,0,0,0,0,0,0,-32292,0,0,0,4878,0,417355,0
417483,-446,76,8172,-20,14,26,9823,4,1,5,5176,182,53,26,144,0,6,0,0,0,0,0,0,-32292,0,0,0,4879,0,417367,0
417493,-462,60,8202,-15,8,27,9822,-4,-1,1,5160,186,73,26,144,0,6,0,0,0,0,0,0,-32292,0,0,0,4879,0,417374,0
417503,-384,76,8168,-18,15,25,9822,-1,-3,1,5168,182,71,25,144,0,6,0,0,0,0,0,0,-32292,0,0,0,4879,0,417393,0
417513,-420,52,8152,-15,16,26,9822,0,-4,4,5168,182,59,26,144,0,6,0,0,0,0,0,0,-32292,0,0,0,4879,0,417395,0
417523,-408,84,8178,-15,19,33,9822,-3,-3,3,5160,183,46,26,144,0,6,0,0,0,0,0,0,-32292,0,0,0,4879,0,417407,0
417533,-408,68,8192,-14,16,30,9822,-2,2,5,5168,184,45,25,144,0,6,0,0,0,0,0,0,-32292,0,0,0,4879,0,417417,0
417543,-398,92,8158,-20,16,30,9822,0,-6,3,5176,181,54,25,144,0,6,0,0,0,0,0,0,-32292,0,0,0,4879,0,417428,0
417553,-410,78,8174,-15,21,27,9821,-1,-1,1,5168,181,44,25,144,0,6,0,0,0,0,0,0,-32292,0,0,0,4878,0,417434,0
417563,-420,76,8180,-14,18,24,9820,-1,1,5,5168,181,71,26,144,0,6,0,0,0,0,0,0,-32293,0,0,0,4879,0,417444,0
417573,-382,82,8158,-21,13,28,9822,0,0,-1,5168,181,67,26,144,0,6,0,0,0,0,0,0,-32292,0,0,0,4879,0,417457,0
417583,-420,62,8172,-12,15,26,9821,5,3,3,5176,177,61,25,144,0,6,0,0,0,0,0,0,-32293,0,0,0,4879,0,417464,0
417593,-430,82,8176,-14,16,28,9821,-2,0,3,5168,179,51,26,144,0,6,0,0,0,0,0,0,-32293,0,0,0,4879,0,417474,0
417603,-422,48,8174,-19,18,27,9821,-8,2,3,5168,183,51,26,144,0,6,0,0,0,0,0,0,-32293,0,0,0,4879,0,417486,0
417613,-408,68,8174,-17,13,23,9821,1,7,6,5176,184,67,25,144,0,6,0,0,0,0,0,0,-32291,0,0,0,4878,0,417497,0
417623,-460,62,8166,-16,12,25,9821,1,3,2,5160,184,74,25,144,0,6,0,0,0,0,0,0,-32291,0,0,0,4880,0,417504,0
417633,-428,48,8148,-18,12,23,9821,0,-1,4,5168,182,77,25,144,0,6,0,0,0,0,0,0,-32292,0,0,0,4879,0,417514,0
417643,-396,64,8142,-19,14,30,9821,-3,-2,3,5168,182,35,25,144,0,6,0,0,0,0,0,0,-32292,0,0,0,4878,0,417539,0
417653,-420,80,8150,-20,12,24,9822,-3,0,2,5160,181,28,26,144,0,6,0,0,0,0,0,0,-32292,0,0,0,4879,0,417550,0
417663,-406,72,8172,-14,11,28,9821,-3,3,2,5168,180,50,25,144,0,6,0,0,0,0,0,0,-32292,0,0,0,4879,0,417557,0
417673,-436,74,8156,-13,13,28,9822,5,-2,6,5160,180,38,26,144,0,6,0,0,0,0,0,0,-32292,0,0,0,4878,0,417560,0
417683,-392,66,8152,-13,14,26,9821,-3,2,2,5168,182,48,26,144,0,6,0,0,0,0,0,0,-32291,0,0,0,4879,0,417564,0
417693,-472,44,8192,-17,14,27,9822,4,3,2,5168,179,28,25,144,0,6,0,0,0,0,0,0,-32292,0,0,0,4878,0,417576,0
417703,-434,64,8170,-19,18,30,9822,-5,1,1,5168,179,44,25,144,0,6,0,0,0,0,0,0,-32293,0,0,0,4879,0,417584,0
417713,-416,34,8166,-16,16,23,9822,0,-2,0,5184,181,36,25,144,0,6,0,0,0,0,0,0,-32292,0,0,0,4879,0,417604,0
417723,-416,58,8178,-12,17,28,9821,1,-2,2,5160,182,27,26,144,0,6,0,0,0,0,0,0,-32292,0,0,0,4879,0,417615,0
417733,-398,60,8156,-15,13,29,9822,8,1,6,5168,182,21,25,144,0,6,0,0,0,0,0,0,-32292,0,0,0,4878,0,417626,0
417743,-394,62,8158,-14,17,28,9822,0,5,5,5168,182,42,25,144,0,6,0,0,0,0,0,0,-32292,0,0,0,4879,0,417630,0
417753,-398,80,8188,-16,14,26,9822,5,0,2,5168,183,46,26,144,0,6,0,0,0,0,0,0,-32293,0,0,0,4878,0,417637,0
417763,-396,60,8164,-18,10,24,9822,7,1,3,5184,185,45,26,144,0,6,0,0,0,0,0,0,-32291,0,0,0,4878,0,417653,0
417773,-408,68,8170,-19,9,27,9821,-4,-2,8,5160,182,55,26,144,0,6,0,0,0,0,0,0,-32291,0,0,0,4879,0,417658,0
417783,-398,50,8164,-15,15,25,9821,-1,-6,5,5176,182,36,26,144,0,6,0,0,0,0,0,0,-32292,0,0,0,4879,0,417667,0
417793,-426,46,8164,-16,14,25,9822,1,-1,0,5168,183,51,26,144,0,6,0,0,0,0,0,0,-32292,0,0,0,4879,0,417675,0
417803,-414,94,8166,-22,18,26,9821,-2,-1,1,5168,183,51,26,144,0,6,0,0,0,0,0,0,-32292,0,0,0,4877,0,417684,0
417813,-396,52,8178,-16,16,29,9822,3,2,8,5184,183,51,26,144,0,6,0,0,0,0,0,0,-32292,0,0,0,4879,0,417701,0
417823,-422,84,8166,-13,15,25,9822,-3,4,2,5168,183,51,26,144,0,6,0,0,0,0,0,0,-32292,0,0,0,4878,0,417704,0
417833,-388,46,8162,-15,17,22,9823,4,2,3,5176,180,48,26,144,0,6,0,0,0,0,0,0,-32292,0,0,0,4879,0,417714,0
417843,-434,50,8150,-11,17,28,9821,-4,-1,5,5168,179,58,26,144,0,6,0,0,0,0,0,0,-32292,0,0,0,4879,0,417725,0
417853,-432,46,8162,-13,15,28,9822,5,1,1,5168,179,55,26,144,0,6,0,0,0,0,0,0,-32293,0,0,0,4878,0,417737,0
417863,-410,68,8146,-14,16,26,9822,1,2,0,5176,179,68,26,144,0,6,0,0,0,0,0,0,-32292,0,0,0,4879,0,417745,0
417873,-428,70,8144,-13,13,31,9822,0,3,3,5160,179,57,26,144,0,6,0,0,0,0,0,0,-32292,0,0,0,4878,0,417757,0
417883,-392,52,8160,-14,19,25,9821,3,-2,7,5160,176,73,25,144,0,6,0,0,0,0,0,0,-32293,0,0,0,4879,0,417764,0
417893,-398,52,8202,-11,13,30,9821,-7,2,5,5160,177,48,26,144,0,6,0,0,0,0,0,0,-32292,0,0,0,4879,0,417789,0
417903,-428,38,8196,-15,19,30,9822,6,0,3,5168,180,60,26,144,0,6,0,0,0,0,0,0,-32292,0,0,0,4879,0,417813,0
417913,-420,44,8178,-20,17,24,9822,3,1,1,5176,183,66,26,144,0,6,0,0,0,0,0,0,-32292,0,0,0,4879,0,417815,0
417923,-518,46,8230,-15,13,26,9822,3,2,2,5168,181,57,26,144,0,6,0,0,0,0,0,0,-32292,0,0,0,4879,0,417818,0
417933,-448,84,8144,-17,8,27,9821,-2,-1,4,5168,181,46,25,144,0,6,0,0,0,0,0,0,-32292,0,0,0,4879,0,417821,0
417943,-386,74,8220,-13,15,27,9821,-3,1,3,5168,179,58,26,144,0,6,0,0,0,0,0,0,-32292,0,0,0,4878,0,417826,0
417953,-332,48,8240,-16,13,25,9822,4,-2,-1,5168,179,66,26,144,0,6,0,0,0,0,0,0,-32292,0,0,0,4878,0,417836,0
417963,-324,42,8254,-16,25,27,9822,0,4,1,5184,178,84,26,144,0,6,0,0,0,0,0,0,-32291,0,0,0,4878,0,417847,0
417973,-344,28,8226,-12,18,24,9822,-2,-1,3,5168,179,88,26,144,0,6,0,0,0,0,0,0,-32292,0,0,0,4879,0,417862,0
417983,-568,52,8104,-16,12,26,9821,0,1,4,5168,176,83,25,144,0,6,0,0,0,0,0,0,-32291,0,0,0,4879,0,417864,0
417993,-470,42,8184,-14,17,26,9822,-2,1,5,5168,181,94,25,144,0,6,0,0,0,0,0,0,-32292,0,0,0,4878,0,417879,0
418003,-474,74,8160,-13,8,25,9822,-1,4,3,5168,179,82,26,144,0,6,0,0,0,0,0,0,-32292,0,0,0,4878,0,417896,0
418013,-404,66,8116,-19,15,28,9821,-2,-3,4,5176,179,62,26,144,0,6,0,0,0,0,0,0,-32292,0,0,0,4878,0,417901,0
418023,-356,96,8194,-16,16,29,9822,2,3,4,5168,174,27,25,144,0,6,0,0,0,0,0,0,-32291,0,0,0,4878,0,417912,0
418033,-380,72,8200,-14,19,28,9821,-2,0,1,5160,175,47,25,144,0,6,0,0,0,0,0,0,-32292,0,0,0,4879,0,417916,0
418043,-388,56,8164,-17,19,34,9822,3,-2,5,5168,177,66,25,144,0,6,0,0,0,0,0,0,-32292,0,0,0,4879,0,417924,0
418053,-428,38,8188,-15,18,23,9822,2,1,1,5168,180,79,25,144,0,6,0,0,0,0,0,0,-32292,0,0,0,4879,0,417937,0
418063,-462,34,8172,-15,19,29,9822,3,-1,1,5176,182,86,26,144,0,6,0,0,0,0,0,0,-32292,0,0,0,4879,0,417946,0
418073,-440,52,8166,-15,12,27,9821,0,2,5,5160,184,84,26,144,0,6,0,0,0,0,0,0,-32291,0,0,0,4878,0,417966,0
418083,-420,26,8136,-16,16,27,9822,-2,1,2,5160,183,89,26,144,0,6,0,0,0,0,0,0,-32292,0,0,0,4878,0,417968,0
418093,-420,70,8178,-15,16,25,9821,0,1,1,5168,175,83,26,144,0,6,0,0,0,0,0,0,-32291,0,0,0,4878,0,417976,0
418103,-404,66,8172,-17,12,27,9821,-6,-2,4,5168,175,56,26,144,0,6,0,0,0,0,0,0,-32291,0,0,0,4879,0,417984,0
418113,-392,32,8188,-17,14,20,9821,0,-1,6,5168,179,41,26,144,0,6,0,0,0,0,0,0,-32292,0,0,0,4880,0,417995,0
418123,-400,78,8164,-22,13,22,9822,0,3,4,5168,181,50,26,144,0,6,0,0,0,0,0,0,-32291,0,0,0,4878,0,418005,0
418133,-322,-32,8166,-7,28,31,9822,0,-2,-1,5168,181,57,26,144,0,6,0,0,0,0,0,0,-32291,0,0,0,4878,0,418016,0
418143,-340,170,7978,-13,-1,25,9822,5,2,3,5168,179,68,26,144,0,6,0,0,0,0,0,0,-32291,0,0,0,4879,0,418028,0
418153,-484,104,8058,-15,13,31,9822,-5,2,4,5168,178,58,26,144,0,6,0,0,0,0,0,0,-32292,0,0,0,4879,0,418036,0
418163,-224,76,8158,-17,19,26,9822,3,0,3,5168,176,53,26,144,0,6,0,0,0,0,0,0,-32291,0,0,0,4879,0,418047,0
418173,-462,28,8280,-15,10,30,9822,3,-1,6,5168,178,65,26,144,0,6,0,0,0,0,0,0,-32292,0,0,0,4879,0,418057,0
418183,-362,24,8206,-15,26,23,9821,0,3,6,5168,178,75,26,144,0,6,0,0,0,0,0,0,-32292,0,0,0,4879,0,418073,0
418193,-296,48,8258,-17,18,26,9823,1,0,4,5168,179,66,26,144,0,6,0,0,0,0,0,0,-32292,0,0,0,4878,0,418078,0
418203,-432,58,8172,-13,16,27,9822,3,-1,6,5168,177,65,26,144,0,6,0,0,0,0,0,0,-32292,0,0,0,4879,0,418084,0
418213,-332,50,8070,-13,19,25,9822,5,1,6,5168,174,68,26,144,0,6,0,0,0,0,0,0,-32293,0,0,0,4879,0,418095,0
418223,-402,56,8082,-14,15,25,9822,2,-2,0,5168,175,54,26,144,0,6,0,0,0,0,0,0,-32293,0,0,0,4878,0,418107,0
418233,-416,60,8156,-14,18,24,9822,-1,-2,2,5168,174,62,26,144,0,6,0,0,0,0,0,0,-32293,0,0,0,4879,0,418119,0
418243,-484,60,8184,-13,18,27,9820,-9,-5,0,5160,178,77,26,144,0,6,0,0,0,0,0,0,-32292,0,0,0,4879,0,418127,0
418253,-498,30,8176,-15,15,25,9822,-3,-4,3,5168,179,94,26,144,0,6,0,0,0,0,0,0,-32291,0,0,0,4878,0,418136,0
418263,-488,46,8172,-15,8,23,9821,0,3,0,5176,177,75,26,144,0,6,0,0,0,0,0,0,-32294,0,0,0,4878,0,418144,0
418273,-392,64,8174,-22,9,25,9823,4,-2,-1,5168,178,44,26,144,0,6,0,0,0,0,0,0,-32292,0,0,0,4878,0,418154,0
418283,-374,54,8132,-15,16,21,9822,-2,-3,5,5168,182,52,26,144,0,6,0,0,0,0,0,0,-32292,0,0,0,4879,0,418164,0
418293,-370,66,8196,-20,16,28,9822,-3,-2,6,5160,183,46,26,144,0,6,0,0,0,0,0,0,-32292,0,0,0,4879,0,418176,0
418303,-434,72,8194,-12,18,29,9822,-1,1,3,5168,184,43,26,144,0,6,0,0,0,0,0,0,-32293,0,0,0,4879,0,418191,0
418313,-400,76,8142,-18,15,23,9821,-3,1,2,5176,182,32,26,144,0,6,0,0,0,0,0,0,-32292,0,0,0,4880,0,418201,0
418323,-720,146,8534,-21,5,27,9820,-5,0,0,5160,179,26,25,144,0,6,0,0,0,0,0,0,-32292,0,0,0,4878,0,418207,0
418333,-424,32,8148,-20,10,27,9821,-2,-5,5,5168,180,53,25,144,0,6,0,0,0,0,0,0,-32291,0,0,0,4879,0,418214,0
418343,-430,22,8176,-18,11,25,9822,-2,3,1,5176,177,41,25,144,0,6,0,0,0,0,0,0,-32292,0,0,0,4879,0,418227,0
418353,-342,52,8340,-18,15,22,9822,-4,-6,3,5168,175,46,26,144,0,6,0,0,0,0,0,0,-32291,0,0,0,4878,0,418243,0
418363,-352,30,8154,-20,18,23,9821,0,5,3,5176,175,32,26,144,0,6,0,0,0,0,0,0,-32292,0,0,0,4879,0,418248,0
418373,-266,80,8138,-12,23,26,9822,0,-2,6,5168,177,54,26,144,0,6,0,0,0,0,0,0,-32292,0,0,0,4878,0,418255,0
418383,-512,102,8092,-19,15,28,9821,-6,0,6,5160,176,63,26,144,0,6,0,0,0,0,0,0,-32292,0,0,0,4878,0,418265,0
418393,-434,38,8142,-16,22,26,9821,0,1,4,5168,174,36,26,144,0,6,0,0,0,0,0,0,-32292,0,0,0,4879,0,418287,0
418403,-518,70,8058,-17,13,23,9821,-2,0,6,5168,176,24,26,144,0,6,0,0,0,0,0,0,-32291,0,0,0,4879,0,418289,0
418413,-440,74,8156,-14,15,24,9821,0,-1,2,5160,178,37,25,144,0,6,0,0,0,0,0,0,-32292,0,0,0,4879,0,418294,0
418423,-418,74,8164,-17,13,27,9821,0,1,1,5160,177,26,25,144,0,6,0,0,0,0,0,0,-32292,0,0,0,4879,0,418304,0
418433,-426,90,8132,-15,9,27,9821,-2,-2,6,5160,172,22,26,144,0,6,0,0,0,0,0,0,-32291,0,0,0,4879,0,418319,0
418443,-412,60,8122,-14,12,28,9820,-7,1,2,5168,168,-4,25,144,0,6,0,0,0,0,0,0,-32291,0,0,0,4879,0,418327,0
418453,-434,70,8198,-12,15,28,9822,1,-4,5,5168,172,17,26,144,0,6,0,0,0,0,0,0,-32292,0,0,0,4878,0,418335,0
418463,-426,44,8192,-12,14,25,9821,0,-7,5,5168,173,47,26,144,0,6,0,0,0,0,0,0,-32292,0,0,0,4878,0,418344,0
418473,-396,20,8208,-14,14,25,9820,-3,2,0,5160,177,47,26,144,0,6,0,0,0,0,0,0,-32291,0,0,0,4879,0,418359,0
418483,-438,60,8158,-11,18,26,9822,7,-1,2,5160,176,40,25,144,0,6,0,0,0,0,0,0,-32292,0,0,0,4879,0,418368,0
418493,-396,66,8116,-20,12,23,9822,-2,-3,1,5168,179,13,25,144,0,6,0,0,0,0,0,0,-32292,0,0,0,4879,0,418374,0
418503,-384,66,8154,-16,14,25,9823,13,-3,2,5176,182,15,26,144,0,6,0,0,0,0,0,0,-32292,0,0,0,4879,0,418385,0
418513,-406,74,8154,-19,15,28,9821,-2,-4,8,5168,179,28,26,144,0,6,0,0,0,0,0,0,-32292,0,0,0,4879,0,418400,0
418523,-400,60,8194,-19,13,25,9821,1,2,-1,5160,178,30,25,144,0,6,0,0,0,0,0,0,-32292,0,0,0,4879,0,418407,0
418533,-482,58,8154,-18,16,27,9821,-1,4,7,5168,174,43,26,144,0,6,0,0,0,0,0,0,-32292,0,0,0,4878,0,418444,0
418543,-460,56,8158,-18,15,28,9821,-1,-2,6,5168,179,65,26,144,0,6,0,0,0,0,0,0,-32292,0,0,0,4879,0,418447,0
418553,-420,66,8170,-17,17,25,9822,3,0,2,5168,182,72,25,144,0,6,0,0,0,0,0,0,-32292,0,0,0,4879,0,418449,0
418563,-422,76,8144,-13,14,28,9821,-3,2,2,5168,184,77,25,144,0,6,0,0,0,0,0,0,-32292,0,0,0,4879,0,418452,0
418573,-388,70,8140,-21,13,23,9822,0,3,1,5168,182,50,25,144,0,6,0,0,0,0,0,0,-32292,0,0,0,4879,0,418454,0
418583,-378,54,8156,-20,17,25,9822,9,0,2,5168,186,58,25,144,0,6,0,0,0,0,0,0,-32292,0,0,0,4878,0,418464,0
418593,-372,56,8168,-12,16,24,9821,-4,-1,0,5168,184,53,26,144,0,6,0,0,0,0,0,0,-32292,0,0,0,4879,0,418491,0
418603,-368,42,8132,-14,9,28,9821,-8,-3,3,5168,184,86,26,144,0,6,0,0,0,0,0,0,-32292,0,0,0,4879,0,418493,0
418613,-414,78,8184,-18,16,29,9821,-1,0,6,5176,178,46,25,144,0,6,0,0,0,0,0,0,-32292,0,0,0,4879,0,418496,0
418623,-452,42,8140,-14,17,28,9823,7,-2,3,5168,178,67,25,144,0,6,0,0,0,0,0,0,-32291,0,0,0,4879,0,418504,0
418633,-442,50,8160,-15,17,24,9822,1,4,5,5160,179,54,25,144,0,6,0,0,0,0,0,0,-32292,0,0,0,4879,0,418519,0
418643,-428,40,8162,-21,13,29,9821,0,0,5,5168,178,42,25,144,0,6,0,0,0,0,0,0,-32292,0,0,0,4879,0,418527,0
418653,-434,56,8166,-17,14,26,9820,-6,0,3,5168,176,34,25,144,0,6,0,0,0,0,0,0,-32292,0,0,0,4879,0,418534,0
418663,-436,56,8148,-14,13,27,9821,-2,-1,5,5176,174,27,25,144,0,6,0,0,0,0,0,0,-32292,0,0,0,4878,0,418544,0
418673,-430,42,8162,-19,14,30,9821,0,2,0,5160,174,32,26,144,0,6,0,0,0,0,0,0,-32292,0,0,0,4878,0,418555,0
418683,-422,54,8176,-15,11,26,9822,4,0,4,5168,173,57,25,144,0,6,0,0,0,0,0,0,-32292,0,0,0,4879,0,418566,0
418693,-362,62,8170,-18,13,26,9823,8,1,3,5176,176,61,25,144,0,6,0,0,0,0,0,0,-32291,0,0,0,4879,0,418577,0
418703,-392,58,8180,-19,18,26,9822,-6,0,5,5168,181,78,25,144,0,6,0,0,0,0,0,0,-32292,0,0,0,4879,0,418598,0
418713,-404,42,8160,-17,15,29,9821,-3,-4,7,5168,183,92,25,144,0,6,0,0,0,0,0,0,-32292,0,0,0,4879,0,418601,0
418723,-440,58,8168,-20,17,27,9821,0,1,1,5160,183,77,25,144,0,6,0,0,0,0,0,0,-32292,0,0,0,4879,0,418608,0
418733,-416,32,8184,-14,11,28,9821,1,0,6,5168,180,77,25,144,0,6,0,0,0,0,0,0,-32292,0,0,0,4878,0,418614,0
418743,-402,54,8164,-16,16,24,9821,1,-3,4,5176,180,39,26,144,0,6,0,0,0,0,0,0,-32292,0,0,0,4878,0,418625,0
418753,-412,64,8144,-19,19,28,9821,-2,0,-2,5168,180,49,26,144,0,6,0,0,0,0,0,0,-32291,0,0,0,4879,0,418637,0
418763,-458,64,8170,-19,16,26,9820,-8,-3,0,5168,180,79,26,144,0,6,0,0,0,0,0,0,-32292,0,0,0,4879,0,418650,0
418773,-402,28,8182,-13,13,22,9820,-12,-4,3,5160,176,108,25,144,0,6,0,0,0,0,0,0,-32292,0,0,0,4879,0,418658,0
418783,-416,74,8158,-13,11,21,9821,-1,-2,5,5168,176,90,26,144,0,6,0,0,0,0,0,0,-32292,0,0,0,4879,0,418666,0
418793,-402,56,8178,-21,15,24,9822,5,2,7,5176,173,83,26,144,0,6,0,0,0,0,0,0,-32291,0,0,0,4879,0,418674,0
418803,-414,52,8152,-17,15,30,9822,-4,5,0,5168,176,60,26,144,0,6,0,0,0,0,0,0,-32292,0,0,0,4879,0,418684,0
418813,-414,32,8184,-10,11,24,9822,-5,-1,2,5160,179,63,26,144,0,6,0,0,0,0,0,0,-32293,0,0,0,4879,0,418697,0
418823,-414,78,8134,-20,11,26,9822,1,1,3,5168,180,77,26,144,0,6,0,0,0,0,0,0,-32292,0,0,0,4879,0,418704,0
418833,-392,60,8180,-15,15,26,9821,-1,1,6,5168,177,66,25,144,0,6,0,0,0,0,0,0,-32293,0,0,0,4879,0,418720,0
418843,-418,36,8168,-17,13,26,9823,12,5,4,5176,179,79,26,144,0,6,0,0,0,0,0,0,-32293,0,0,0,4878,0,418727,0
418853,-424,68,8174,-15,10,27,9823,7,6,4,5168,183,63,26,144,0,6,0,0,0,0,0,0,-32294,0,0,0,4879,0,418735,0
418863,-418,60,8162,-13,19,22,9822,8,6,7,5176,183,46,25,144,0,6,0,0,0,0,0,0,-32293,0,0,0,4878,0,418744,0
418873,-422,54,8182,-16,20,23,9822,0,2,0,5168,180,38,26,144,0,6,0,0,0,0,0,0,-32292,0,0,0,4878,0,418760,0
418883,-450,44,8182,-18,13,26,9822,2,4,3,5168,182,54,25,144,0,6,0,0,0,0,0,0,-32292,0,0,0,4879,0,418765,0
418893,-394,48,8190,-16,10,25,9821,-4,1,6,5176,180,46,25,144,0,6,0,0,0,0,0,0,-32293,0,0,0,4878,0,418777,0
418903,-424,92,8158,-19,16,28,9822,4,3,4,5176,178,69,25,144,0,6,0,0,0,0,0,0,-32291,0,0,0,4879,0,418786,0
418913,-394,84,8164,-20,12,25,9822,0,0,0,5168,177,69,25,144,0,6,0,0,0,0,0,0,-32293,0,0,0,4878,0,418803,0
418923,-420,48,8164,-15,17,28,9822,0,0,5,5168,180,93,26,144,0,6,0,0,0,0,0,0,-32292,0,0,0,4879,0,418808,0
418933,-422,62,8170,-17,13,28,9821,1,-1,6,5160,182,92,26,144,0,6,0,0,0,0,0,0,-32292,0,0,0,4878,0,418814,0
418943,-434,44,8164,-19,16,29,9822,11,3,2,5176,176,77,26,144,0,6,0,0,0,0,0,0,-32292,0,0,0,4879,0,418824,0
418953,-430,50,8160,-20,17,23,9822,1,3,1,5168,178,67,25,144,0,6,0,0,0,0,0,0,-32292,0,0,0,4879,0,418850,0
418963,-422,76,8172,-19,13,25,9822,8,2,1,5168,178,63,25,144,0,6,0,0,0,0,0,0,-32292,0,0,0,4878,0,418867,0
418973,-408,64,8156,-22,17,25,9822,3,0,1,5168,182,73,26,144,0,6,0,0,0,0,0,0,-32291,0,0,0,4878,0,418870,0
418983,-404,68,8174,-16,18,25,9822,0,-5,3,5168,177,62,26,144,0,6,0,0,0,0,0,0,-32292,0,0,0,4878,0,418872,0
418993,-386,90,8180,-16,12,27,9822,3,0,2,5176,178,85,25,144,0,6,0,0,0,0,0,0,-32291,0,0,0,4878,0,418874,0
419003,-408,86,8184,-11,16,31,9821,4,3,2,5168,177,67,26,144,0,6,0,0,0,0,0,0,-32292,0,0,0,4877,0,418885,0
419013,-424,58,8172,-15,19,29,9822,-2,-2,1,5168,182,53,26,144,0,6,0,0,0,0,0,0,-32293,0,0,0,4878,0,418897,0
419023,-424,48,8170,-13,19,25,9822,5,2,1,5168,180,62,25,144,0,6,0,0,0,0,0,0,-32292,0,0,0,4879,0,418911,0
419033,-408,32,8192,-18,11,27,9823,0,-4,4,5176,178,47,25,144,0,6,0,0,0,0,0,0,-32292,0,0,0,4879,0,418916,0
419043,-476,66,8170,-17,17,23,9822,-2,3,4,5168,177,53,25,144,0,6,0,0,0,0,0,0,-32293,0,0,0,4879,0,418928,0
419053,-372,56,8172,-18,18,24,9822,5,1,2,5168,179,66,25,144,0,6,0,0,0,0,0,0,-32291,0,0,0,4879,0,418937,0
419063,-410,70,8168,-14,17,28,9822,-2,-2,-1,5160,182,77,26,144,0,6,0,0,0,0,0,0,-32292,0,0,0,4879,0,418944,0
419073,-408,68,8178,-17,22,27,9821,-2,7,2,5176,181,92,25,144,0,6,0,0,0,0,0,0,-32292,0,0,0,4878,0,418957,0
419083,-422,70,8160,-16,15,24,9822,-2,-2,5,5168,179,96,26,144,0,6,0,0,0,0,0,0,-32292,0,0,0,4879,0,418965,0
419093,-430,42,8150,-12,21,27,9821,-5,-1,2,5176,173,85,26,144,0,6,0,0,0,0,0,0,-32292,0,0,0,4879,0,418981,0
419103,-430,56,8150,-14,9,31,9822,-2,-6,4,5168,173,70,26,144,0,6,0,0,0,0,0,0,-32292,0,0,0,4879,0,418989,0
419113,-432,62,8178,-18,9,28,9821,3,0,5,5160,175,73,26,144,0,6,0,0,0,0,0,0,-32292,0,0,0,4879,0,419001,0
419123,-432,52,8190,-18,8,32,9821,-1,0,2,5168,177,52,26,144,0,6,0,0,0,0,0,0,-32292,0,0,0,4879,0,419008,0
419133,-404,48,8150,-15,18,27,9822,4,-3,4,5168,175,46,25,144,0,6,0,0,0,0,0,0,-32292,0,0,0,4878,0,419017,0
419143,-400,80,8164,-18,11,28,9822,6,-2,3,5176,176,66,26,144,0,6,0,0,0,0,0,0,-32292,0,0,0,4879,0,419026,0
419153,-426,84,8176,-19,17,29,9821,-1,1,3,5168,179,66,26,144,0,6,0,0,0,0,0,0,-32293,0,0,0,4879,0,419034,0
419163,-420,68,8154,-19,14,27,9822,5,0,5,5176,179,67,26,144,0,6,0,0,0,0,0,0,-32291,0,0,0,4879,0,419044,0
419173,-422,78,8158,-11,15,26,9822,-2,1,-2,5176,179,50,26,144,0,6,0,0,0,0,0,0,-32292,0,0,0,4879,0,419072,0
419183,-422,48,8158,-14,14,28,9822,3,-2,2,5168,181,52,26,144,0,6,0,0,0,0,0,0,-32293,0,0,0,4878,0,419097,0
419193,-434,38,8154,-12,14,25,9821,-5,0,3,5168,183,62,26,144,0,6,0,0,0,0,0,0,-32292,0,0,0,4878,0,419104,0
419203,-410,42,8180,-13,18,28,9822,6,0,5,5168,182,76,26,144,0,6,0,0,0,0,0,0,-32292,0,0,0,4878,0,419107,0
419213,-418,58,8166,-16,18,23,9822,0,-2,1,5176,180,66,25,144,0,6,0,0,0,0,0,0,-32292,0,0,0,4879,0,419114,0
419223,-378,54,8170,-17,20,27,9821,1,0,3,5176,183,81,25,144,0,6,0,0,0,0,0,0,-32292,0,0,0,4878,0,419117,0
419233,-398,78,8202,-20,15,32,9822,3,0,6,5168,182,76,25,144,0,6,0,0,0,0,0,0,-32292,0,0,0,4878,0,419125,0
419243,-394,56,8190,-14,12,29,9821,10,2,0,5168,180,111,26,144,0,6,0,0,0,0,0,0,-32292,0,0,0,4879,0,419128,0
419253,-360,60,8208,-21,15,27,9822,-4,-1,2,5168,179,104,26,144,0,6,0,0,0,0,0,0,-32292,0,0,0,4879,0,419135,0
419263,-422,62,8178,-20,12,25,9823,14,1,2,5176,175,105,25,144,0,6,0,0,0,0,0,0,-32291,0,0,0,4879,0,419146,0
419273,-444,46,8156,-20,12,27,9822,0,4,6,5176,177,96,25,144,0,6,0,0,0,0,0,0,-32291,0,0,0,4878,0,419155,0
419283,-438,48,8162,-14,13,30,9822,-2,1,5,5168,179,84,26,144,0,6,0,0,0,0,0,0,-32292,0,0,0,4878,0,419164,0
419293,-424,56,8166,-17,12,28,9822,1,3,1,5176,178,73,26,144,0,6,0,0,0,0,0,0,-32292,0,0,0,4878,0,419189,0
419303,-442,50,8170,-17,11,31,9822,3,2,2,5168,181,67,26,144,0,6,0,0,0,0,0,0,-32291,0,0,0,4878,0,419221,0
419313,-404,40,8158,-16,12,29,9821,-3,-3,4,5168,179,60,26,144,0,6,0,0,0,0,0,0,-32292,0,0,0,4879,0,419223,0
419323,-444,52,8166,-11,11,31,9821,-2,0,2,5176,178,49,26,144,0,6,0,0,0,0,0,0,-32291,0,0,0,4879,0,419237,0
419333,-420,70,8172,-16,14,30,9822,5,-1,1,5168,179,57,25,144,0,6,0,0,0,0,0,0,-32291,0,0,0,4879,0,419243,0
419343,-398,56,8158,-16,15,30,9822,3,-3,0,5168,177,39,26,144,0,6,0,0,0,0,0,0,-32292,0,0,0,4878,0,419246,0
419353,-394,36,8158,-16,18,20,9822,6,4,4,5168,179,48,26,144,0,6,0,0,0,0,0,0,-32291,0,0,0,4879,0,419257,0
419363,-422,52,8152,-15,14,23,9821,0,-4,-2,5168,181,78,25,144,0,6,0,0,0,0,0,0,-32292,0,0,0,4878,0,419259,0
419373,-414,80,8152,-12,20,30,9822,1,1,6,5176,181,75,25,144,0,6,0,0,0,0,0,0,-32291,0,0,0,4879,0,419267,0
419383,-406,92,8174,-17,10,29,9821,-6,-2,4,5160,180,95,26,144,0,6,0,0,0,0,0,0,-32292,0,0,0,4878,0,419281,0
419393,-432,74,8164,-16,14,31,9821,1,1,3,5168,179,105,25,144,0,6,0,0,0,0,0,0,-32292,0,0,0,4878,0,419284,0
419403,-406,76,8134,-20,17,26,9822,1,-1,6,5168,180,106,26,144,0,6,0,0,0,0,0,0,-32292,0,0,0,4879,0,419286,0
419413,-402,38,8158,-18,16,30,9822,3,-2,2,5168,181,120,25,144,0,6,0,0,0,0,0,0,-32291,0,0,0,4879,0,419295,0
419423,-450,66,8194,-18,19,29,9821,-1,-3,2,5176,181,79,26,144,0,6,0,0,0,0,0,0,-32293,0,0,0,4878,0,419307,0
419433,-382,74,8152,-15,14,27,9823,5,1,4,5168,179,79,26,144,0,6,0,0,0,0,0,0,-32292,0,0,0,4879,0,419316,0
419443,-414,32,8164,-16,15,24,9821,-5,0,4,5168,181,74,25,144,0,6,0,0,0,0,0,0,-32291,0,0,0,4879,0,419327,0
419453,-392,42,8180,-19,16,26,9822,0,-3,5,5168,180,68,26,144,0,6,0,0,0,0,0,0,-32293,0,0,0,4879,0,419338,0
419463,-408,86,8142,-14,18,28,9821,-3,-2,5,5160,179,68,25,144,0,6,0,0,0,0,0,0,-32293,0,0,0,4879,0,419348,0
419473,-412,66,8164,-14,17,25,9821,-5,-2,3,5168,177,51,26,144,0,6,0,0,0,0,0,0,-32293,0,0,0,4879,0,419355,0
419483,-428,70,8152,-17,17,27,9820,-9,2,4,5160,180,62,25,144,0,6,0,0,0,0,0,0,-32293,0,0,0,4878,0,419367,0
419493,-400,62,8132,-11,19,28,9822,2,0,0,5160,183,65,25,144,0,6,0,0,0,0,0,0,-32292,0,0,0,4878,0,419374,0
419503,-412,30,8166,-22,13,29,9821,-2,-1,2,5176,182,71,25,144,0,6,0,0,0,0,0,0,-32293,0,0,0,4879,0,419389,0
419513,-442,54,8148,-16,16,25,9822,1,4,5,5168,183,70,26,144,0,6,0,0,0,0,0,0,-32292,0,0,0,4879,0,419397,0
419523,-408,56,8160,-17,19,26,9821,-1,2,3,5176,186,83,26,144,0,6,0,0,0,0,0,0,-32291,0,0,0,4878,0,419404,0
419533,-422,52,8192,-15,18,25,9821,-7,-2,4,5160,182,71,25,144,0,6,0,0,0,0,0,0,-32292,0,0,0,4878,0,419423,0
419543,-388,78,8154,-20,13,28,9822,2,1,3,5176,179,90,26,144,0,6,0,0,0,0,0,0,-32292,0,0,0,4879,0,419431,0
419553,-438,82,8160,-16,16,29,9820,-8,-6,4,5176,179,83,25,144,0,6,0,0,0,0,0,0,-32292,0,0,0,4879,0,419437,0
419563,-442,52,8134,-14,17,25,9821,-1,1,0,5168,177,93,25,144,0,6,0,0,0,0,0,0,-32292,0,0,0,4878,0,419447,0
419573,-430,64,8168,-18,16,25,9822,-1,2,6,5176,177,100,25,144,0,6,0,0,0,0,0,0,-32292,0,0,0,4879,0,419463,0
419583,-410,48,8172,-19,14,21,9821,-1,-1,3,5160,174,109,25,144,0,6,0,0,0,0,0,0,-32292,0,0,0,4879,0,419470,0
419593,-426,78,8162,-15,14,27,9821,-5,1,-1,5160,176,97,25,144,0,6,0,0,0,0,0,0,-32292,0,0,0,4878,0,419477,0
419603,-406,36,8170,-12,13,29,9821,-3,0,1,5168,176,93,25,144,0,6,0,0,0,0,0,0,-32292,0,0,0,4878,0,419485,0
419613,-422,46,8134,-16,16,27,9822,1,1,2,5168,178,68,25,144,0,6,0,0,0,0,0,0,-32293,0,0,0,4879,0,419497,0
419623,-424,64,8184,-19,20,23,9822,2,4,4,5168,180,90,25,144,0,6,0,0,0,0,0,0,-32292,0,0,0,4879,0,419505,0
419633,-416,62,8122,-15,15,29,9822,3,2,4,5168,179,92,25,144,0,6,0,0,0,0,0,0,-32292,0,0,0,4879,0,419516,0
419643,-396,66,8164,-18,12,21,9820,-5,0,3,5168,176,73,25,144,0,6,0,0,0,0,0,0,-32293,0,0,0,4879,0,419524,0
419653,-400,80,8180,-14,11,27,9821,-5,-1,2,5176,179,71,25,144,0,6,0,0,0,0,0,0,-32292,0,0,0,4879,0,419534,0
419663,-382,56,8166,-16,18,27,9822,4,2,9,5176,180,61,26,144,0,6,0,0,0,0,0,0,-32292,0,0,0,4879,0,419554,0
419673,-376,56,8174,-16,16,32,9821,-10,0,3,5168,182,88,25,144,0,6,0,0,0,0,0,0,-32292,0,0,0,4879,0,419567,0
419683,-404,58,8182,-19,16,30,9821,0,-3,5,5168,181,66,25,144,0,6,0,0,0,0,0,0,-32292,0,0,0,4879,0,419569,0
419693,-432,44,8182,-14,15,24,9821,2,2,0,5168,180,90,26,144,0,6,0,0,0,0,0,0,-32292,0,0,0,4878,0,419577,0
419703,-440,32,8154,-15,20,27,9822,0,1,5,5184,182,81,25,144,0,6,0,0,0,0,0,0,-32292,0,0,0,4880,0,419584,0
419713,-486,62,8166,-17,21,26,9822,-1,3,9,5176,175,60,25,144,0,6,0,0,0,0,0,0,-32292,0,0,0,4879,0,419597,0
419723,-462,70,8170,-16,16,26,9821,-6,-5,2,5168,173,67,26,144,0,6,0,0,0,0,0,0,-32292,0,0,0,4878,0,419606,0
419733,-412,58,8172,-15,14,29,9822,2,1,4,5176,170,82,25,144,0,6,0,0,0,0,0,0,-32293,0,0,0,4878,0,419615,0
419743,-438,44,8174,-17,16,25,9822,2,0,3,5168,174,82,25,144,0,6,0,0,0,0,0,0,-32292,0,0,0,4879,0,419626,0
419753,-376,76,8164,-23,12,31,9820,-2,-1,5,5176,174,80,25,144,0,6,0,0,0,0,0,0,-32293,0,0,0,4878,0,419635,0
419763,-442,78,8166,-17,13,24,9821,2,2,6,5176,177,48,25,144,0,6,0,0,0,0,0,0,-32292,0,0,0,4879,0,419644,0
419773,-370,82,8180,-16,17,27,9821,-6,2,1,5160,178,53,26,144,0,6,0,0,0,0,0,0,-32292,0,0,0,4879,0,419662,0
419783,-424,64,8148,-24,18,21,9821,0,2,2,5160,181,62,25,144,0,6,0,0,0,0,0,0,-32292,0,0,0,4879,0,419667,0
419793,-432,36,8162,-18,17,23,9822,3,-1,2,5168,181,80,25,144,0,6,0,0,0,0,0,0,-32292,0,0,0,4879,0,419675,0
419803,-434,62,8180,-17,14,28,9821,3,-1,2,5176,177,77,25,144,0,6,0,0,0,0,0,0,-32292,0,0,0,4879,0,419684,0
419813,-446,36,8168,-15,17,24,9821,2,-1,8,5168,179,50,26,144,0,6,0,0,0,0,0,0,-32292,0,0,0,4879,0,419721,0
419823,-440,64,8160,-12,14,25,9821,-3,-1,0,5168,179,57,26,144,0,6,0,0,0,0,0,0,-32292,0,0,0,4878,0,419743,0
419833,-398,56,8152,-20,13,28,9821,0,-5,4,5176,177,47,25,144,0,6,0,0,0,0,0,0,-32292,0,0,0,4879,0,419751,0
419843,-416,62,8172,-14,15,28,9821,-1,-3,0,5168,176,54,25,144,0,6,0,0,0,0,0,0,-32292,0,0,0,4878,0,419762,0
419853,-382,58,8168,-15,20,28,9822,2,0,3,5176,179,41,26,144,0,6,0,0,0,0,0,0,-32293,0,0,0,4878,0,419765,0
419863,-400,84,8176,-18,15,24,9821,1,5,3,5168,179,34,26,144,0,6,0,0,0,0,0,0,-32292,0,0,0,4879,0,419765,0
419873,-406,70,8166,-20,13,30,9821,0,-3,3,5160,178,36,25,144,0,6,0,0,0,0,0,0,-32292,0,0,0,4878,0,419767,0
419883,-438,52,8170,-14,13,28,9821,2,2,0,5168,175,49,25,144,0,6,0,0,0,0,0,0,-32292,0,0,0,4878,0,419769,0
419893,-460,46,8178,-19,14,27,9822,1,4,2,5168,177,75,25,144,0,6,0,0,0,0,0,0,-32292,0,0,0,4879,0,419777,0
419903,-414,50,8200,-16,15,24,9821,-1,-1,6,5176,178,82,26,144,0,6,0,0,0,0,0,0,-32292,0,0,0,4879,0,419790,0
419913,-426,14,8146,-13,13,27,9822,9,-2,3,5160,180,106,26,144,0,6,0,0,0,0,0,0,-32292,0,0,0,4879,0,419797,0
419923,-420,72,8178,-13,13,26,9821,-2,-4,3,5168,182,101,26,144,0,6,0,0,0,0,0,0,-32292,0,0,0,4878,0,419805,0
419933,-418,26,8140,-16,14,25,9822,6,-1,6,5184,181,84,25,144,0,6,0,0,0,0,0,0,-32292,0,0,0,4878,0,419816,0
419943,-416,68,8146,-15,17,27,9821,-5,4,2,5168,180,52,26,144,0,6,0,0,0,0,0,0,-32291,0,0,0,4879,0,419830,0
419953,-400,80,8168,-18,18,24,9823,4,-1,4,5176,179,61,25,144,0,6,0,0,0,0,0,0,-32291,0,0,0,4878,0,419837,0
419963,-400,66,8170,-21,16,27,9821,0,0,0,5168,181,51,26,144,0,6,0,0,0,0,0,0,-32292,0,0,0,4880,0,419844,0
419973,-452,34,8162,-15,15,27,9822,5,-5,2,5160,181,53,26,144,0,6,0,0,0,0,0,0,-32292,0,0,0,4878,0,419854,0
419983,-458,70,8172,-17,16,23,9822,1,-2,5,5176,180,43,26,144,0,6,0,0,0,0,0,0,-32292,0,0,0,4878,0,419869,0
419993,-428,48,8176,-16,14,26,9821,-1,0,2,5168,183,53,26,144,0,6,0,0,0,0,0,0,-32292,0,0,0,4879,0,419877,0
420003,-408,50,8176,-15,16,27,9821,3,1,5,5176,183,66,26,144,0,6,0,0,0,0,0,0,-32292,0,0,0,4879,0,419884,0
420013,-396,52,8168,-17,14,28,9821,1,5,9,5176,181,72,26,144,0,6,0,0,0,0,0,0,-32292,0,0,0,4878,0,419895,0
420023,-388,58,8170,-13,15,27,9821,0,2,0,5160,181,57,26,144,0,6,0,0,0,0,0,0,-32292,0,0,0,4878,0,419911,0
420033,-408,42,8174,-19,20,29,9822,4,3,4,5176,181,58,26,144,0,6,0,0,0,0,0,0,-32292,0,0,0,4878,0,419918,0
420043,-434,58,8180,-17,17,27,9821,-4,0,2,5168,183,41,26,144,0,6,0,0,0,0,0,0,-32292,0,0,0,4878,0,419924,0
420053,-390,56,8144,-16,14,23,9822,3,0,3,5176,177,49,26,144,0,6,0,0,0,0,0,0,-32293,0,0,0,4879,0,419934,0
420063,-436,72,8174,-15,13,26,9821,-2,-1,9,5168,175,34,26,144,0,6,0,0,0,0,0,0,-32293,0,0,0,4878,0,419949,0
420073,-422,22,8168,-14,15,31,9821,1,2,2,5168,176,52,26,144,0,6,0,0,0,0,0,0,-32293,0,0,0,4879,0,419957,0
420083,-426,56,8176,-15,16,27,9821,-3,1,2,5176,180,64,26,144,0,6,0,0,0,0,0,0,-32292,0,0,0,4878,0,419965,0
420093,-416,86,8202,-18,12,22,9821,-3,1,0,5168,180,71,26,144,0,6,0,0,0,0,0,0,-32293,0,0,0,4879,0,419976,0
420103,-418,60,8178,-20,16,27,9822,0,1,0,5176,178,64,26,144,0,6,0,0,0,0,0,0,-32291,0,0,0,4878,0,419984,0
420113,-406,56,8116,-22,8,29,9823,7,2,7,5168,182,73,26,144,0,6,0,0,0,0,0,0,-32293,0,0,0,4879,0,419996,0
420123,-426,58,8190,-16,17,28,9822,3,-5,5,5168,184,61,26,144,0,6,0,0,0,0,0,0,-32293,0,0,0,4879,0,420004,0
420133,-392,60,8146,-18,15,26,9822,2,1,5,5176,181,46,26,144,0,6,0,0,0,0,0,0,-32293,0,0,0,4878,0,420015,0
420143,-374,72,8136,-15,13,26,9823,5,2,3,5168,185,65,26,144,0,6,0,0,0,0,0,0,-32293,0,0,0,4877,0,420041,0
420153,-404,54,8164,-11,13,27,9823,5,0,3,5168,182,52,26,144,0,6,0,0,0,0,0,0,-32292,0,0,0,4879,0,420053,0
420163,-378,48,8162,-19,19,28,9820,-7,0,5,5168,185,78,26,144,0,6,0,0,0,0,0,0,-32292,0,0,0,4878,0,420060,0
420173,-410,72,8176,-20,16,27,9821,-1,-1,1,5168,180,62,25,144,0,6,0,0,0,0,0,0,-32292,0,0,0,4879,0,420063,0
420183,-430,58,8168,-16,14,30,9822,1,-2,6,5176,179,91,25,144,0,6,0,0,0,0,0,0,-32291,0,0,0,4878,0,420066,0
420193,-442,54,8176,-20,12,24,9821,0,-2,1,5168,176,65,26,144,0,6,0,0,0,0,0,0,-32293,0,0,0,4879,0,420074,0
420203,-366,58,8164,-13,18,26,9822,-3,0,1,5168,178,63,26,144,0,6,0,0,0,0,0,0,-32292,0,0,0,4879,0,420087,0
420213,-434,40,8174,-21,20,34,9821,0,-3,0,5176,179,79,25,144,0,6,0,0,0,0,0,0,-32291,0,0,0,4878,0,420097,0
420223,-430,68,8200,-18,20,29,9821,-5,3,4,5160,178,103,25,144,0,6,0,0,0,0,0,0,-32291,0,0,0,4878,0,420105,0
420233,-406,74,8144,-14,10,22,9822,1,-1,5,5176,177,98,26,144,0,6,0,0,0,0,0,0,-32292,0,0,0,4878,0,420117,0
420243,-404,46,8144,-20,13,27,9821,-2,3,2,5168,179,104,26,144,0,6,0,0,0,0,0,0,-32291,0,0,0,4878,0,420126,0
420253,-422,54,8174,-16,14,28,9820,-5,6,3,5168,180,75,26,144,0,6,0,0,0,0,0,0,-32293,0,0,0,4879,0,420134,0
420263,-424,70,8184,-16,21,26,9821,1,0,5,5168,178,44,26,144,0,6,0,0,0,0,0,0,-32292,0,0,0,4879,0,420145,0
420273,-388,66,8170,-13,15,24,9822,1,0,4,5168,174,46,26,144,0,6,0,0,0,0,0,0,-32293,0,0,0,4879,0,420157,0
420283,-412,34,8174,-19,14,30,9821,-8,-6,6,5168,176,60,26,144,0,6,0,0,0,0,0,0,-32292,0,0,0,4878,0,420165,0
420293,-438,70,8174,-17,14,27,9823,10,-1,3,5176,178,80,25,144,0,6,0,0,0,0,0,0,-32292,0,0,0,4879,0,420180,0
420303,-398,66,8158,-16,15,28,9822,1,0,5,5168,182,63,26,144,0,6,0,0,0,0,0,0,-32292,0,0,0,4879,0,420197,0
420313,-428,68,8172,-16,10,29,9821,-4,2,3,5176,178,57,26,144,0,6,0,0,0,0,0,0,-32292,0,0,0,4879,0,420199,0
420323,-416,74,8146,-20,15,26,9823,5,-1,4,5168,176,64,25,144,0,6,0,0,0,0,0,0,-32292,0,0,0,4879,0,420204,0
420333,-424,60,8170,-16,15,28,9822,7,-4,6,5176,180,85,26,144,0,6,0,0,0,0,0,0,-32292,0,0,0,4879,0,420214,0
420343,-414,64,8158,-19,17,27,9822,0,-3,8,5168,185,82,26,144,0,6,0,0,0,0,0,0,-32292,0,0,0,4878,0,420225,0
420353,-402,48,8156,-15,14,29,9821,-4,-5,0,5168,182,63,26,144,0,6,0,0,0,0,0,0,-32292,0,0,0,4879,0,420245,0
420363,-410,90,8154,-13,16,27,9822,1,1,2,5184,181,36,26,144,0,6,0,0,0,0,0,0,-32292,0,0,0,4879,0,420257,0
420373,-418,64,8180,-15,18,24,9822,8,2,1,5168,182,33,26,144,0,6,0,0,0,0,0,0,-32292,0,0,0,4879,0,420271,0
420383,-436,58,8172,-20,17,24,9823,8,0,3,5176,182,46,26,144,0,6,0,0,0,0,0,0,-32292,0,0,0,4879,0,420274,0
420393,-456,80,8174,-13,13,23,9821,1,1,0,5168,176,45,26,144,0,6,0,0,0,0,0,0,-32291,0,0,0,4879,0,420280,0
420403,-436,44,8172,-16,16,25,9822,-1,2,-2,5168,173,46,26,144,0,6,0,0,0,0,0,0,-32292,0,0,0,4878,0,420289,0
420413,-406,48,8164,-17,10,22,9820,-2,-1,6,5168,174,44,26,144,0,6,0,0,0,0,0,0,-32293,0,0,0,4878,0,420297,0
420423,-392,50,8148,-21,18,25,9821,0,1,3,5168,180,62,26,144,0,6,0,0,0,0,0,0,-32292,0,0,0,4878,0,420309,0
420433,-408,66,8168,-16,11,27,9821,-5,-4,3,5168,176,65,26,144,0,6,0,0,0,0,0,0,-32292,0,0,0,4879,0,420317,0
420443,-434,86,8148,-14,16,26,9822,5,3,0,5176,175,79,25,144,0,6,0,0,0,0,0,0,-32292,0,0,0,4879,0,420324,0
420453,-410,90,8154,-17,12,25,9820,0,7,1,5160,177,61,25,144,0,6,0,0,0,0,0,0,-32292,0,0,0,4879,0,420367,0
420463,-408,62,8168,-19,17,29,9823,1,-4,4,5184,181,56,25,144,0,6,0,0,0,0,0,0,-32292,0,0,0,4879,0,420397,0
420473,-376,76,8162,-16,16,23,9822,1,-1,3,5168,180,78,26,144,0,6,0,0,0,0,0,0,-32291,0,0,0,4879,0,420399,0
420483,-424,78,8176,-16,14,29,9822,4,4,1,5176,176,73,25,144,0,6,0,0,0,0,0,0,-32292,0,0,0,4879,0,420402,0
420493,-428,66,8154,-16,14,30,9821,-1,-2,2,5168,176,81,26,144,0,6,0,0,0,0,0,0,-32292,0,0,0,4879,0,420404,0
420503,-426,72,8192,-13,16,29,9821,1,1,4,5168,178,91,25,144,0,6,0,0,0,0,0,0,-32292,0,0,0,4879,0,420407,0
420513,-432,36,8162,-14,13,27,9821,-3,-1,1,5176,179,72,26,144,0,6,0,0,0,0,0,0,-32292,0,0,0,4879,0,420407,0
420523,-434,72,8154,-17,17,27,9822,0,3,4,5160,182,104,26,144,0,6,0,0,0,0,0,0,-32292,0,0,0,4879,0,420409,0
420533,-398,58,8160,-16,19,28,9822,3,-2,0,5168,181,101,26,144,0,6,0,0,0,0,0,0,-32292,0,0,0,4879,0,420415,0
420543,-414,70,8154,-16,10,26,9822,4,3,6,5176,182,81,26,144,0,6,0,0,0,0,0,0,-32292,0,0,0,4878,0,420425,0
420553,-422,70,8164,-17,20,22,9821,-4,-4,0,5168,184,89,26,144,0,6,0,0,0,0,0,0,-32292,0,0,0,4879,0,420435,0
420563,-418,32,8152,-19,17,28,9822,5,1,8,5184,183,60,26,144,0,6,0,0,0,0,0,0,-32292,0,0,0,4878,0,420444,0
420573,-428,52,8172,-16,18,26,9821,-10,-2,2,5168,182,62,25,144,0,6,0,0,0,0,0,0,-32292,0,0,0,4878,0,420455,0
420583,-442,80,8170,-14,15,26,9822,1,3,1,5168,178,55,25,144,0,6,0,0,0,0,0,0,-32291,0,0,0,4878,0,420464,0
420593,-438,40,8152,-19,17,25,9821,-2,-1,3,5168,178,51,26,144,0,6,0,0,0,0,0,0,-32292,0,0,0,4879,0,420474,0
420603,-458,54,8200,-18,10,25,9822,1,0,0,5168,178,44,26,144,0,6,0,0,0,0,0,0,-32292,0,0,0,4878,0,420484,0
420613,-424,46,8182,-21,19,29,9822,4,-6,10,5168,178,43,25,144,0,6,0,0,0,0,0,0,-32292,0,0,0,4878,0,420495,0
420623,-408,64,8162,-20,11,27,9822,3,2,4,5160,176,44,25,144,0,6,0,0,0,0,0,0,-32291,0,0,0,4879,0,420507,0
420633,-392,70,8144,-22,19,33,9821,1,2,2,5160,175,67,25,144,0,6,0,0,0,0,0,0,-32292,0,0,0,4878,0,420515,0
420643,-366,84,8154,-19,16,26,9821,-5,-3,3,5168,180,72,26,144,0,6,0,0,0,0,0,0,-32292,0,0,0,4878,0,420525,0
420653,-420,90,8162,-17,14,26,9821,-4,3,0,5168,177,67,26,144,0,6,0,0,0,0,0,0,-32292,0,0,0,4878,0,420536,0
420663,-422,76,8146,-13,13,28,9822,0,-1,4,5184,177,63,26,144,0,6,0,0,0,0,0,0,-32291,0,0,0,4879,0,420546,0
420673,-426,80,8160,-17,16,29,9822,10,-1,3,5168,176,39,25,144,0,6,0,0,0,0,0,0,-32291,0,0,0,4879,0,420564,0
420683,-442,74,8172,-23,13,29,9821,-3,2,4,5152,177,41,25,144,0,6,0,0,0,0,0,0,-32293,0,0,0,4879,0,420579,0
420693,-448,40,8154,-12,14,29,9821,0,-5,5,5160,176,66,26,144,0,6,0,0,0,0,0,0,-32293,0,0,0,4879,0,420587,0
420703,-428,76,8192,-18,13,21,9822,0,0,5,5168,181,80,25,144,0,6,0,0,0,0,0,0,-32293,0,0,0,4878,0,420590,0
420713,-432,30,8168,-18,15,29,9821,-7,2,0,5176,180,90,25,144,0,6,0,0,0,0,0,0,-32293,0,0,0,4879,0,420596,0
420723,-416,58,8184,-14,12,27,9822,-3,-4,5,5168,181,77,26,144,0,6,0,0,0,0,0,0,-32291,0,0,0,4878,0,420607,0
420733,-362,46,8162,-14,11,26,9823,3,-3,3,5160,179,55,26,144,0,6,0,0,0,0,0,0,-32291,0,0,0,4878,0,420614,0
420743,-378,62,8170,-21,19,27,9820,-5,-4,4,5168,174,45,26,144,0,6,0,0,0,0,0,0,-32292,0,0,0,4878,0,420624,0
420753,-374,78,8164,-14,20,25,9822,1,1,3,5168,175,22,26,144,0,6,0,0,0,0,0,0,-32292,0,0,0,4879,0,420649,0
420763,-410,70,8172,-16,17,26,9822,3,4,3,5176,176,36,26,144,0,6,0,0,0,0,0,0,-32292,0,0,0,4879,0,420655,0
420773,-434,50,8168,-14,15,27,9821,-2,3,4,5168,175,40,26,144,0,6,0,0,0,0,0,0,-32292,0,0,0,4878,0,420667,0
420783,-446,52,8160,-14,17,22,9820,-8,-1,1,5168,174,49,26,144,0,6,0,0,0,0,0,0,-32293,0,0,0,4879,0,420677,0
420793,-422,50,8164,-16,13,29,9821,-4,1,1,5160,176,59,26,144,0,6,0,0,0,0,0,0,-32292,0,0,0,4879,0,420680,0
420803,-478,48,8184,-16,12,25,9821,-1,-5,5,5168,179,80,26,144,0,6,0,0,0,0,0,0,-32292,0,0,0,4879,0,420684,0
420813,-374,72,8156,-18,17,28,9821,0,0,7,5176,182,70,26,144,0,6,0,0,0,0,0,0,-32292,0,0,0,4879,0,420697,0
420823,-392,76,8154,-17,11,27,9821,1,-4,4,5168,182,93,26,144,0,6,0,0,0,0,0,0,-32291,0,0,0,4878,0,420714,0
420833,-416,74,8162,-18,17,24,9821,-1,2,1,5160,182,71,25,144,0,6,0,0,0,0,0,0,-32292,0,0,0,4879,0,420719,0
420843,-404,68,8164,-15,15,26,9822,8,1,3,5184,181,64,26,144,0,6,0,0,0,0,0,0,-32292,0,0,0,4877,0,420724,0
420853,-456,68,8176,-12,15,28,9821,0,2,2,5168,180,62,26,144,0,6,0,0,0,0,0,0,-32293,0,0,0,4878,0,420734,0
420863,-448,50,8160,-18,16,27,9822,8,3,8,5176,178,59,26,144,0,6,0,0,0,0,0,0,-32292,0,0,0,4878,0,420747,0
420873,-448,68,8182,-14,12,26,9821,0,1,2,5168,176,68,25,144,0,6,0,0,0,0,0,0,-32292,0,0,0,4878,0,420755,0
420883,-422,62,8180,-17,12,24,9822,0,4,1,5160,175,77,25,144,0,6,0,0,0,0,0,0,-32292,0,0,0,4879,0,420766,0
420893,-428,88,8172,-19,14,24,9822,3,0,3,5168,179,82,26,144,0,6,0,0,0,0,0,0,-32293,0,0,0,4879,0,420777,0
420903,-434,56,8160,-19,18,24,9822,4,4,4,5176,180,75,25,144,0,6,0,0,0,0,0,0,-32292,0,0,0,4878,0,420788,0
420913,-418,70,8174,-18,11,26,9822,5,2,5,5176,179,65,26,144,0,6,0,0,0,0,0,0,-32292,0,0,0,4878,0,420803,0
420923,-418,44,8164,-13,14,25,9822,0,5,2,5168,181,67,26,144,0,6,0,0,0,0,0,0,-32292,0,0,0,4878,0,420814,0
420933,-426,64,8174,-18,17,23,9822,0,4,6,5160,185,83,26,144,0,6,0,0,0,0,0,0,-32292,0,0,0,4879,0,420822,0
420943,-400,72,8172,-12,9,22,9822,0,0,3,5168,182,67,26,144,0,6,0,0,0,0,0,0,-32292,0,0,0,4879,0,420827,0
420953,-402,74,8162,-16,18,25,9823,-5,-4,5,5168,177,80,26,144,0,6,0,0,0,0,0,0,-32291,0,0,0,4879,0,420835,0
420963,-384,68,8162,-20,15,26,9822,8,-4,4,5168,177,57,26,144,0,6,0,0,0,0,0,0,-32292,0,0,0,4878,0,420847,0
420973,-430,64,8174,-16,14,26,9823,3,-2,2,5160,179,82,26,144,0,6,0,0,0,0,0,0,-32292,0,0,0,4879,0,420855,0
420983,-426,98,8178,-14,18,29,9821,-2,5,2,5168,181,69,26,144,0,6,0,0,0,0,0,0,-32292,0,0,0,4878,0,420864,0
420993,-410,42,8162,-15,19,24,9821,-2,1,3,5168,178,69,26,144,0,6,0,0,0,0,0,0,-32292,0,0,0,4879,0,420889,0
421003,-466,84,8174,-14,16,28,9821,-5,-2,6,5168,181,69,26,144,0,6,0,0,0,0,0,0,-32292,0,0,0,4878,0,420899,0
421013,-430,66,8158,-14,21,28,9822,-2,-2,7,5160,181,65,26,144,0,6,0,0,0,0,0,0,-32292,0,0,0,4879,0,420907,0
421023,-436,60,8152,-18,14,24,9822,2,2,4,5168,178,46,26,144,0,6,0,0,0,0,0,0,-32292,0,0,0,4877,0,420909,0
421033,-420,80,8156,-17,17,28,9822,3,-1,6,5168,174,41,26,144,0,6,0,0,0,0,0,0,-32292,0,0,0,4878,0,420916,0
421043,-408,54,8170,-16,14,25,9821,-5,-2,4,5168,174,35,26,144,0,6,0,0,0,0,0,0,-32292,0,0,0,4879,0,420925,0
421053,-378,94,8198,-17,18,26,9822,7,1,2,5168,180,70,25,144,0,6,0,0,0,0,0,0,-32292,0,0,0,4879,0,420934,0
421063,-398,54,8166,-15,21,31,9821,0,3,5,5176,185,87,26,144,0,6,0,0,0,0,0,0,-32291,0,0,0,4879,0,420944,0
421073,-386,48,8182,-19,21,28,9821,-1,0,0,5160,183,61,26,144,0,6,0,0,0,0,0,0,-32292,0,0,0,4879,0,421023,0
421083,-426,70,8146,-18,16,27,9822,8,0,1,5168,178,28,26,144,0,6,0,0,0,0,0,0,-32292,0,0,0,4879,0,421043,0
421093,-468,66,8174,-14,16,27,9822,4,1,1,5168,176,10,26,144,0,6,0,0,0,0,0,0,-32292,0,0,0,4879,0,421048,0
421103,-472,78,8158,-18,17,26,9821,4,2,3,5168,178,33,26,144,0,6,0,0,0,0,0,0,-32292,0,0,0,4879,0,421052,0
421113,-458,36,8174,-20,12,23,9821,-4,1,2,5168,181,39,26,144,0,6,0,0,0,0,0,0,-32292,0,0,0,4878,0,421069,0
421123,-434,32,8170,-18,19,25,9821,-9,-2,3,5168,181,42,26,144,0,6,0,0,0,0,0,0,-32291,0,0,0,4878,0,421069,0
421133,-392,56,8182,-14,14,27,9821,-7,-1,3,5168,180,44,26,144,0,6,0,0,0,0,0,0,-32292,0,0,0,4878,0,421069,0
421143,-398,58,8190,-18,17,25,9821,-12,-4,0,5168,179,59,26,144,0,6,0,0,0,0,0,0,-32292,0,0,0,4879,0,421069,0
421153,-404,78,8168,-15,17,30,9822,8,3,6,5168,179,51,26,144,0,6,0,0,0,0,0,0,-32292,0,0,0,4878,0,421069,0
421163,-378,72,8160,-15,14,25,9823,7,-3,2,5168,181,46,26,144,0,6,0,0,0,0,0,0,-32292,0,0,0,4879,0,421069,0
421173,-404,30,8162,-20,15,29,9821,-1,-3,4,5168,178,28,25,144,0,6,0,0,0,0,0,0,-32292,0,0,0,4879,0,421071,0
421183,-412,50,8126,-15,16,24,9821,-3,-1,0,5160,178,55,26,144,0,6,0,0,0,0,0,0,-32292,0,0,0,4878,0,421073,0
421193,-454,86,8168,-16,14,27,9822,-2,2,2,5168,179,71,26,144,0,6,0,0,0,0,0,0,-32292,0,0,0,4878,0,421076,0
421203,-416,62,8196,-16,15,25,9821,0,1,4,5176,178,59,25,144,0,6,0,0,0,0,0,0,-32291,0,0,0,4879,0,421084,0
421213,-402,70,8166,-17,6,27,9820,-4,-2,8,5160,174,13,26,144,0,6,0,0,0,0,0,0,-32292,0,0,0,4879,0,421095,0
421223,-426,58,8148,-19,11,25,9822,0,-2,4,5168,177,11,26,144,0,6,0,0,0,0,0,0,-32291,0,0,0,4879,0,421107,0
421233,-354,68,8170,-10,14,25,9821,-5,0,6,5168,180,54,25,144,0,6,0,0,0,0,0,0,-32292,0,0,0,4878,0,421115,0
421243,-578,116,7546,-21,-21,34,9821,1,3,3,5160,182,49,25,144,0,6,0,0,0,0,0,0,-32291,0,0,0,4879,0,421126,0
421253,-476,-106,8030,-16,5,26,9821,0,6,4,5168,177,47,25,144,0,6,0,0,0,0,0,0,-32291,0,0,0,4879,0,421137,0
421263,-316,130,8418,-14,21,24,9822,1,0,0,5160,182,46,26,144,0,6,0,0,0,0,0,0,-32292,0,0,0,4880,0,421148,0
421273,-180,20,8482,-15,16,29,9821,4,3,1,5168,182,55,26,144,0,6,0,0,0,0,0,0,-32292,0,0,0,4879,0,421157,0
421283,-114,-14,8060,-17,39,25,9820,-4,-1,3,5160,184,83,26,144,0,6,0,0,0,0,0,0,-32293,0,0,0,4879,0,421169,0
421293,-92,-16,8158,-14,37,22,9821,-3,-5,4,5168,179,80,25,144,0,6,0,0,0,0,0,0,-32292,0,0,0,4879,0,421174,0
421303,-574,58,7772,-20,28,28,9822,5,-1,1,5176,182,37,26,144,0,6,0,0,0,0,0,0,-32293,0,0,0,4878,0,421184,0
421313,-520,56,8068,-21,35,26,9822,-2,-4,7,5168,185,27,26,144,0,6,0,0,0,0,0,0,-32293,0,0,0,4879,0,421197,0
421323,-696,66,7962,-20,3,27,9822,0,4,2,5168,187,32,25,144,0,6,0,0,0,0,0,0,-32292,0,0,0,4879,0,421205,0
421333,-638,58,8048,-15,10,29,9821,-3,-4,2,5160,182,49,25,144,0,6,0,0,0,0,0,0,-32293,0,0,0,4879,0,421217,0
421343,-330,94,8120,-14,5,29,9821,-1,-4,0,5176,181,71,26,144,0,6,0,0,0,0,0,0,-32293,0,0,0,4878,0,421224,0
421353,-472,112,8104,-18,8,28,9822,0,-4,2,5168,178,67,26,144,0,6,0,0,0,0,0,0,-32293,0,0,0,4879,0,421237,0
421363,-314,42,8250,-14,16,28,9822,2,-2,0,5160,179,98,26,144,0,6,0,0,0,0,0,0,-32292,0,0,0,4879,0,421244,0
421373,-430,38,8222,-17,14,23,9822,1,-3,1,5168,181,105,26,144,0,6,0,0,0,0,0,0,-32292,0,0,0,4879,0,421256,0
421383,-344,44,8252,-13,15,28,9821,-2,-1,4,5160,179,101,26,144,0,6,0,0,0,0,0,0,-32291,0,0,0,4878,0,421267,0
421393,-366,-18,8248,-16,9,27,9821,0,2,1,5176,182,109,25,144,0,6,0,0,0,0,0,0,-32291,0,0,0,4879,0,421287,0
421403,-352,88,8096,-17,22,28,9822,2,-1,4,5168,184,89,26,144,0,6,0,0,0,0,0,0,-32292,0,0,0,4878,0,421292,0
421413,-320,22,8206,-13,22,26,9822,0,3,1,5168,191,111,26,144,0,6,0,0,0,0,0,0,-32291,0,0,0,4879,0,421294,0
421423,-536,32,8110,-15,18,22,9821,-1,3,1,5168,188,107,25,144,0,6,0,0,0,0,0,0,-32292,0,0,0,4879,0,421304,0
421433,-440,60,8096,-10,21,26,9821,-6,3,6,5168,188,88,26,144,0,6,0,0,0,0,0,0,-32292,0,0,0,4879,0,421317,0
421443,-478,88,8108,-11,8,27,9822,6,-4,0,5176,188,105,26,144,0,6,0,0,0,0,0,0,-32291,0,0,0,4879,0,421324,0
421453,-476,72,8098,-12,9,24,9821,8,-1,0,5168,185,70,25,144,0,6,0,0,0,0,0,0,-32292,0,0,0,4879,0,421337,0
421463,-466,44,8174,-24,15,29,9821,1,2,3,5168,182,66,26,144,0,6,0,0,0,0,0,0,-32292,0,0,0,4879,0,421350,0
421473,-456,46,8152,-16,11,25,9821,-3,-1,0,5160,182,61,26,144,0,6,0,0,0,0,0,0,-32292,0,0,0,4879,0,421356,0
421483,-398,68,8180,-10,16,29,9820,-2,1,0,5168,180,57,26,144,0,6,0,0,0,0,0,0,-32293,0,0,0,4879,0,421366,0
421493,-406,64,8200,-12,13,25,9821,-5,2,2,5168,182,74,26,144,0,6,0,0,0,0,0,0,-32293,0,0,0,4879,0,421379,0
421503,-428,58,8166,-18,18,27,9822,0,-2,5,5168,178,72,25,144,0,6,0,0,0,0,0,0,-32291,0,0,0,4878,0,421389,0
421513,-416,72,8190,-14,14,27,9822,0,1,5,5160,179,61,26,144,0,6,0,0,0,0,0,0,-32292,0,0,0,4879,0,421398,0
421523,-412,58,8158,-17,14,29,9821,-3,-3,3,5168,180,57,26,144,0,6,0,0,0,0,0,0,-32292,0,0,0,4879,0,421425,0
421533,-408,76,8166,-16,13,25,9822,7,0,5,5168,181,52,26,144,0,6,0,0,0,0,0,0,-32292,0,0,0,4879,0,421441,0
421543,-402,76,8154,-13,12,25,9822,3,-4,3,5176,178,41,25,144,0,6,0,0,0,0,0,0,-32292,0,0,0,4879,0,421443,0
421553,-418,60,8178,-13,15,26,9821,0,2,1,5176,176,47,25,144,0,6,0,0,0,0,0,0,-32292,0,0,0,4878,0,421448,0
421563,-392,60,8180,-18,16,27,9822,0,-5,6,5168,177,35,25,144,0,6,0,0,0,0,0,0,-32293,0,0,0,4878,0,421458,0
421573,-432,62,8150,-17,16,24,9821,0,2,1,5168,179,51,26,144,0,6,0,0,0,0,0,0,-32292,0,0,0,4879,0,421460,0
421583,-414,44,8170,-15,17,26,9821,-2,0,4,5160,177,54,25,144,0,6,0,0,0,0,0,0,-32292,0,0,0,4879,0,421465,0
421593,-438,58,8180,-19,17,25,9822,-3,-2,6,5176,173,41,26,144,0,6,0,0,0,0,0,0,-32292,0,0,0,4879,0,421481,0
421603,-422,68,8172,-20,13,29,9821,0,6,3,5176,175,28,25,144,0,6,0,0,0,0,0,0,-32292,0,0,0,4879,0,421486,0
421613,-420,86,8170,-14,14,28,9821,0,-3,2,5168,175,33,25,144,0,6,0,0,0,0,0,0,-32292,0,0,0,4878,0,421497,0
421623,-406,68,8150,-14,12,28,9821,-1,-2,4,5168,178,62,25,144,0,6,0,0,0,0,0,0,-32292,0,0,0,4879,0,421506,0
421633,-400,54,8146,-14,17,22,9821,-2,-3,3,5168,176,76,25,144,0,6,0,0,0,0,0,0,-32292,0,0,0,4879,0,421514,0
421643,-390,78,8166,-14,17,28,9820,0,1,5,5176,178,69,26,144,0,6,0,0,0,0,0,0,-32292,0,0,0,4878,0,421524,0
421653,-390,98,8156,-18,11,31,9822,-2,1,1,5168,182,65,26,144,0,6,0,0,0,0,0,0,-32292,0,0,0,4879,0,421535,0
421663,-420,76,8168,-17,16,29,9822,0,2,1,5168,182,67,26,144,0,6,0,0,0,0,0,0,-32292,0,0,0,4878,0,421549,0
421673,-410,44,8156,-17,16,33,9822,0,2,1,5176,180,83,26,144,0,6,0,0,0,0,0,0,-32293,0,0,0,4879,0,421557,0
421683,-416,82,8166,-19,9,29,9822,-1,3,6,5168,176,84,26,144,0,6,0,0,0,0,0,0,-32292,0,0,0,4879,0,421565,0
421693,-432,72,8186,-15,11,29,9821,-5,-3,5,5168,176,67,26,144,0,6,0,0,0,0,0,0,-32292,0,0,0,4879,0,421580,0
421703,-484,52,8156,-15,11,27,9821,-2,-1,2,5168,178,63,26,144,0,6,0,0,0,0,0,0,-32292,0,0,0,4878,0,421584,0
421713,-384,64,8164,-17,22,28,9821,-2,0,5,5176,179,54,26,144,0,6,0,0,0,0,0,0,-32292,0,0,0,4879,0,421596,0
421723,-10,-80,8128,-14,31,26,9821,-4,1,4,5168,176,51,26,144,0,6,0,0,0,0,0,0,-32292,0,0,0,4878,0,421607,0
421733,-136,44,8022,-16,24,26,9823,8,5,5,5168,179,65,26,144,0,6,0,0,0,0,0,0,-32292,0,0,0,4879,0,421637,0
421743,-436,102,7802,-16,8,30,9821,0,3,3,5176,181,95,25,144,0,6,0,0,0,0,0,0,-32292,0,0,0,4879,0,421642,0
421753,-658,100,7974,-18,20,30,9821,-5,-2,2,5168,182,78,25,144,0,6,0,0,0,0,0,0,-32292,0,0,0,4879,0,421647,0
421763,-380,92,8274,-19,2,23,9822,-8,-2,0,5168,179,82,25,144,0,6,0,0,0,0,0,0,-32292,0,0,0,4879,0,421652,0
421773,-508,56,8162,-17,-3,29,9822,0,-4,3,5168,177,109,25,144,0,6,0,0,0,0,0,0,-32291,0,0,0,4879,0,421689,0
421783,-180,16,8258,-19,14,26,9820,-4,-3,1,5168,183,151,26,144,0,6,0,0,0,0,0,0,-32292,0,0,0,4878,0,421691,0
421793,-320,88,8302,-15,13,28,9823,-1,0,1,5168,188,167,26,144,0,6,0,0,0,0,0,0,-32292,0,0,0,4879,0,421696,0
421803,-346,24,8240,-14,19,28,9823,3,2,3,5168,185,109,26,144,0,6,0,0,0,0,0,0,-32292,0,0,0,4879,0,421701,0
421813,-362,42,8216,-18,17,26,9822,-1,-1,0,5168,179,50,26,144,0,6,0,0,0,0,0,0,-32292,0,0,0,4879,0,421707,0
421823,-396,70,8048,-10,16,22,9820,-5,-1,4,5168,175,38,26,144,0,6,0,0,0,0,0,0,-32291,0,0,0,4878,0,421721,0
421833,-384,86,8198,-14,18,26,9821,-9,-1,5,5168,174,57,25,144,0,6,0,0,0,0,0,0,-32292,0,0,0,4878,0,421723,0
421843,-420,68,8100,-14,13,26,9822,3,0,4,5176,173,71,25,144,0,6,0,0,0,0,0,0,-32291,0,0,0,4878,0,421728,0
421853,-544,162,8130,-18,13,26,9822,2,0,1,5168,177,73,26,144,0,6,0,0,0,0,0,0,-32292,0,0,0,4879,0,421737,0
421863,-416,-16,8174,-24,15,28,9821,0,-1,-1,5168,178,95,26,144,0,6,0,0,0,0,0,0,-32292,0,0,0,4878,0,421744,0
421873,-446,22,8170,-15,12,25,9822,3,3,3,5176,181,70,26,144,0,6,0,0,0,0,0,0,-32292,0,0,0,4878,0,421757,0
421883,-374,52,8168,-18,18,28,9822,-1,2,4,5168,184,89,26,144,0,6,0,0,0,0,0,0,-32293,0,0,0,4879,0,421769,0
421893,-402,94,8284,-20,15,28,9820,-7,-4,2,5176,183,98,25,144,0,6,0,0,0,0,0,0,-32292,0,0,0,4879,0,421777,0
421903,-430,72,8136,-20,16,30,9822,1,2,3,5176,186,90,25,144,0,6,0,0,0,0,0,0,-32292,0,0,0,4879,0,421784,0
421913,-456,46,8182,-18,15,24,9821,0,-2,5,5168,185,67,26,144,0,6,0,0,0,0,0,0,-32292,0,0,0,4878,0,421797,0
421923,-462,86,8148,-17,10,25,9821,2,-1,3,5176,186,62,26,144,0,6,0,0,0,0,0,0,-32292,0,0,0,4879,0,421807,0
421933,-440,58,8134,-13,19,23,9823,6,4,4,5168,185,105,25,144,0,6,0,0,0,0,0,0,-32292,0,0,0,4879,0,421814,0
421943,-468,56,8150,-16,16,26,9822,2,1,7,5168,183,76,26,144,0,6,0,0,0,0,0,0,-32293,0,0,0,4878,0,421825,0
421953,-484,50,8174,-8,16,26,9821,0,1,2,5168,184,94,26,144,0,6,0,0,0,0,0,0,-32291,0,0,0,4879,0,421834,0
421963,-414,80,8202,-21,16,26,9822,2,-2,5,5168,180,63,26,144,0,6,0,0,0,0,0,0,-32293,0,0,0,4878,0,421853,0
421973,-404,44,8136,-18,15,27,9822,1,-1,4,5176,177,64,26,144,0,6,0,0,0,0,0,0,-32293,0,0,0,4879,0,421860,0
421983,-404,84,8196,-14,16,20,9820,-5,-3,3,5168,176,49,25,144,0,6,0,0,0,0,0,0,-32293,0,0,0,4878,0,421875,0
421993,-390,32,8164,-15,22,27,9821,-6,-2,1,5168,176,50,26,144,0,6,0,0,0,0,0,0,-32291,0,0,0,4878,0,421877,0
422003,-404,68,8166,-18,16,26,9821,-4,3,6,5168,175,72,26,144,0,6,0,0,0,0,0,0,-32291,0,0,0,4878,0,421885,0
422013,-394,70,8208,-19,18,27,9821,-3,-3,6,5176,178,81,25,144,0,6,0,0,0,0,0,0,-32292,0,0,0,4879,0,421894,0
422023,-394,92,8158,-20,14,31,9821,0,1,1,5176,176,80,26,144,0,6,0,0,0,0,0,0,-32292,0,0,0,4878,0,421906,0
422033,-392,72,8148,-16,17,23,9820,-3,2,3,5168,175,68,26,144,0,6,0,0,0,0,0,0,-32293,0,0,0,4879,0,421915,0
422043,-464,60,8160,-19,17,28,9821,-3,-6,6,5168,177,58,25,144,0,6,0,0,0,0,0,0,-32293,0,0,0,4879,0,421927,0
422053,-430,48,8156,-19,11,30,9823,7,2,4,5176,187,70,25,144,0,6,0,0,0,0,0,0,-32291,0,0,0,4879,0,421935,0
422063,-438,44,8188,-9,15,25,9822,-1,2,10,5168,186,65,25,144,0,6,0,0,0,0,0,0,-32292,0,0,0,4878,0,421946,0
422073,-464,60,8142,-16,16,28,9822,5,0,4,5176,182,62,26,144,0,6,0,0,0,0,0,0,-32293,0,0,0,4878,0,421957,0
422083,-414,56,8160,-18,12,27,9822,-4,-1,5,5168,182,86,26,144,0,6,0,0,0,0,0,0,-32291,0,0,0,4879,0,421964,0
422093,-394,50,8172,-17,16,26,9821,4,-1,3,5160,179,86,26,144,0,6,0,0,0,0,0,0,-32292,0,0,0,4879,0,421982,0
422103,-380,62,8186,-14,13,23,9822,0,2,4,5176,179,75,26,144,0,6,0,0,0,0,0,0,-32293,0,0,0,4877,0,421987,0
422113,-416,42,8164,-14,18,26,9821,-1,0,0,5168,178,104,26,144,0,6,0,0,0,0,0,0,-32291,0,0,0,4879,0,421999,0
422123,-426,76,8194,-14,15,28,9822,-1,0,4,5176,181,97,25,144,0,6,0,0,0,0,0,0,-32292,0,0,0,4878,0,422004,0
422133,-382,88,8168,-14,17,31,9822,4,-2,5,5168,181,91,26,144,0,6,0,0,0,0,0,0,-32292,0,0,0,4878,0,422015,0
422143,-408,68,8144,-18,15,24,9822,0,-7,1,5168,180,73,26,144,0,6,0,0,0,0,0,0,-32292,0,0,0,4878,0,422025,0
422153,-432,64,8138,-13,14,29,9822,-2,0,0,5176,184,54,26,144,0,6,0,0,0,0,0,0,-32292,0,0,0,4878,0,422034,0
422163,-402,74,8144,-14,15,25,9822,0,-5,6,5168,184,39,26,144,0,6,0,0,0,0,0,0,-32292,0,0,0,4878,0,422046,0
422173,-434,40,8162,-13,22,25,9822,0,2,5,5176,183,34,26,144,0,6,0,0,0,0,0,0,-32292,0,0,0,4878,0,422057,0
422183,-396,58,8186,-16,15,25,9821,-2,4,6,5168,182,34,25,144,0,6,0,0,0,0,0,0,-32291,0,0,0,4878,0,422065,0
422193,-392,78,8176,-12,15,32,9820,-1,-4,2,5160,181,44,25,144,0,6,0,0,0,0,0,0,-32292,0,0,0,4877,0,422079,0
422203,-372,80,8158,-19,13,28,9822,-6,0,6,5176,180,50,26,144,0,6,0,0,0,0,0,0,-32292,0,0,0,4879,0,422086,0
422213,-418,76,8162,-11,14,21,9821,-8,-2,6,5176,182,51,26,144,0,6,0,0,0,0,0,0,-32292,0,0,0,4879,0,422097,0
422223,-386,88,8166,-16,18,30,9821,-4,0,2,5168,182,59,26,144,0,6,0,0,0,0,0,0,-32292,0,0,0,4878,0,422104,0
