state_time,accelx,accely,accelz,gyrox,gyroy,gyroz,mot_ang,mot_vel,mot_acc,mot_cur,mot_volt,batt_volt,batt_curr,temperature,status_mn,status_ex,status_re,genvar_0,genvar_1,genvar_2,genvar_3,genvar_4,genvar_5,genvar_6,genvar_7,genvar_8,genvar_9,ank_ang,ank_vel,sys_time,event flags
410895,96,-370,-8322,-19,-30,39,328,3,6,0,0,182,-45,26,144,0,6,0,0,0,0,0,0,-32329,0,0,0,2935,0,2544,0
410905,94,-364,-8290,-15,-39,40,328,-2,-1,0,0,182,-50,26,144,0,6,0,0,0,0,0,0,-32327,0,0,0,2935,0,410895,0
410915,102,-396,-8298,-13,-41,40,328,-2,-3,0,0,182,-34,26,144,0,6,0,0,0,0,0,0,-32327,0,0,0,2935,0,410895,0
410925,86,-386,-8286,-15,-53,36,327,-5,2,7,0,183,-28,26,144,0,6,0,0,0,0,0,0,-32329,0,0,0,2935,0,410895,0
410935,64,-370,-8318,-16,-48,39,328,-3,0,-2,0,184,-32,26,144,0,6,0,0,0,0,0,0,-32330,0,0,0,2935,0,410895,0
410945,90,-360,-8300,-18,-36,41,328,0,-3,2,0,179,-48,26,144,0,6,0,0,0,0,0,0,-32330,0,0,0,2934,0,410895,0
410955,70,-390,-8324,-15,-32,39,328,3,2,4,0,182,-73,26,144,0,6,0,0,0,0,0,0,-32330,0,0,0,2933,0,410895,0
410965,100,-380,-8292,-14,-36,38,327,-2,1,0,0,179,-76,26,144,0,6,0,0,0,0,0,0,-32330,0,0,0,2935,0,410895,0
410975,98,-376,-8302,-16,-42,39,328,0,2,0,0,182,-73,26,144,0,6,0,0,0,0,0,0,-32330,0,0,0,2935,0,410895,0
410985,82,-348,-8308,-19,-41,43,327,1,1,0,0,179,-63,26,144,0,6,0,0,0,0,0,0,-32327,0,0,0,2935,0,410895,0
410995,90,-344,-8320,-18,-45,41,328,-5,4,-1,0,180,-72,26,144,0,6,0,0,0,0,0,0,-32328,0,0,0,2935,0,410895,0
411005,84,-400,-8296,-18,-36,43,327,1,-2,1,0,181,-37,26,144,0,6,0,0,0,0,0,0,-32328,0,0,0,2935,0,410897,0
411015,80,-398,-8306,-9,-34,38,328,3,2,-1,0,182,-28,26,144,0,6,0,0,0,0,0,0,-32328,0,0,0,2935,0,410903,0
411025,68,-372,-8280,-18,-42,38,327,-2,-4,4,0,183,-32,26,144,0,6,0,0,0,0,0,0,-32330,0,0,0,2934,0,410919,0
411035,96,-370,-8268,-18,-44,39,328,2,1,0,0,182,-45,26,144,0,6,0,0,0,0,0,0,-32329,0,0,0,2935,0,410926,0
411045,70,-366,-8276,-19,-39,39,329,3,2,0,0,180,-62,26,144,0,6,0,0,0,0,0,0,-32330,0,0,0,2936,0,410936,0
411055,130,-364,-8330,-18,-38,36,328,-1,2,2,0,182,-71,26,144,0,6,0,0,0,0,0,0,-32330,0,0,0,2935,0,410943,0
411065,94,-370,-8280,-18,-34,37,328,0,4,1,0,182,-66,26,144,0,6,0,0,0,0,0,0,-32330,0,0,0,2934,0,410956,0
411075,120,-382,-8286,-17,-36,43,329,0,5,0,0,177,-87,26,144,0,6,0,0,0,0,0,0,-32330,0,0,0,2936,0,410964,0
411085,82,-370,-8290,-17,-41,39,328,-5,0,-3,0,179,-73,26,144,0,6,0,0,0,0,0,0,-32329,0,0,0,2935,0,410975,0
411095,64,-364,-8300,-16,-42,43,328,0,-3,0,0,179,-77,26,144,0,6,0,0,0,0,0,0,-32328,0,0,0,2934,0,410986,0
411105,76,-350,-8304,-20,-36,38,328,1,-5,1,0,184,-96,26,144,0,6,0,0,0,0,0,0,-32330,0,0,0,2935,0,410993,0
411115,106,-376,-8296,-17,-38,42,328,-3,0,-1,0,178,-86,26,144,0,6,0,0,0,0,0,0,-32330,0,0,0,2935,0,411003,0
411125,82,-376,-8288,-11,-39,41,328,0,-6,4,0,178,-88,26,144,0,6,0,0,0,0,0,0,-32330,0,0,0,2935,0,411024,0
411135,92,-376,-8330,-13,-47,37,328,0,0,-5,0,176,-112,26,144,0,6,0,0,0,0,0,0,-32330,0,0,0,2935,0,411026,0
411145,104,-366,-8348,-18,-40,42,328,4,-1,4,0,179,-100,26,144,0,6,0,0,0,0,0,0,-32330,0,0,0,2935,0,411064,0
411155,82,-356,-8310,-17,-41,42,328,3,-4,0,0,177,-101,26,144,0,6,0,0,0,0,0,0,-32329,0,0,0,2935,0,411070,0
411165,96,-372,-8318,-11,-35,44,328,-3,0,-1,0,178,-62,26,144,0,6,0,0,0,0,0,0,-32329,0,0,0,2935,0,411073,0
411175,98,-352,-8276,-18,-39,42,329,0,4,0,0,180,-38,26,144,0,6,0,0,0,0,0,0,-32329,0,0,0,2935,0,411078,0
411185,114,-404,-8304,-17,-40,39,328,3,1,1,0,182,-31,26,144,0,6,0,0,0,0,0,0,-32329,0,0,0,2935,0,411080,0
411195,96,-382,-8286,-19,-43,37,328,0,3,2,0,183,-20,26,144,0,6,0,0,0,0,0,0,-32329,0,0,0,2935,0,411084,0
411205,110,-372,-8290,-14,-41,37,329,2,-2,5,0,186,-20,26,144,0,6,0,0,0,0,0,0,-32330,0,0,0,2935,0,411093,0
411215,106,-366,-8298,-16,-41,42,328,-3,0,-3,0,185,-15,26,144,0,6,0,0,0,0,0,0,-32330,0,0,0,2935,0,411108,0
411225,88,-388,-8300,-17,-36,39,328,0,-1,2,0,185,-51,26,144,0,6,0,0,0,0,0,0,-32329,0,0,0,2935,0,411113,0
411235,84,-364,-8298,-21,-38,44,328,6,3,-2,0,180,-69,26,144,0,6,0,0,0,0,0,0,-32330,0,0,0,2935,0,411129,0
411245,90,-398,-8310,-14,-43,40,327,-6,0,5,0,180,-71,26,144,0,6,0,0,0,0,0,0,-32329,0,0,0,2935,0,411136,0
411255,74,-376,-8294,-19,-40,42,328,0,-2,0,0,176,-82,26,144,0,6,0,0,0,0,0,0,-32329,0,0,0,2935,0,411146,0
411265,110,-364,-8300,-19,-38,48,328,1,-3,1,0,174,-63,26,144,0,6,0,0,0,0,0,0,-32329,0,0,0,2935,0,411153,0
411275,88,-344,-8290,-15,-41,38,328,7,-1,-2,0,180,-59,26,144,0,6,0,0,0,0,0,0,-32329,0,0,0,2934,0,411166,0
411285,78,-386,-8298,-17,-43,40,328,0,-4,-3,0,179,-53,26,144,0,6,0,0,0,0,0,0,-32330,0,0,0,2935,0,411173,0
411295,90,-386,-8286,-17,-38,39,329,9,4,0,0,184,-52,26,144,0,6,0,0,0,0,0,0,-32329,0,0,0,2935,0,411190,0
411305,94,-364,-8276,-18,-40,37,329,5,-3,0,0,183,-50,26,144,0,6,0,0,0,0,0,0,-32329,0,0,0,2935,0,411196,0
411315,78,-378,-8290,-14,-39,39,327,2,-1,-3,0,183,-30,26,144,0,6,0,0,0,0,0,0,-32329,0,0,0,2935,0,411221,0
411325,76,-406,-8288,-7,-42,44,328,2,3,0,0,182,-42,26,144,0,6,0,0,0,0,0,0,-32329,0,0,0,2935,0,411271,0
411335,96,-352,-8296,-11,-42,40,328,5,1,-1,0,176,-37,26,144,0,6,0,0,0,0,0,0,-32329,0,0,0,2935,0,411295,0
411345,72,-380,-8282,-17,-47,39,328,0,4,0,0,176,-37,26,144,0,6,0,0,0,0,0,0,-32329,0,0,0,2935,0,411346,0
411355,86,-390,-8312,-15,-34,41,329,2,0,0,0,181,15,26,144,0,6,0,0,0,0,0,0,-32329,0,0,0,2935,0,411371,0
411365,98,-362,-8318,-18,-44,41,328,-4,-1,2,0,185,17,26,144,0,6,0,0,0,0,0,0,-32329,0,0,0,2935,0,411389,0
411375,106,-362,-8278,-16,-42,40,328,5,1,1,0,187,-1,26,144,0,6,0,0,0,0,0,0,-32330,0,0,0,2936,0,411389,0
411385,80,-370,-8296,-15,-44,36,328,0,1,-1,0,186,-25,26,144,0,6,0,0,0,0,0,0,-32329,0,0,0,2936,0,411389,0
411395,82,-372,-8302,-17,-37,36,326,-7,0,-2,0,184,-37,26,144,0,6,0,0,0,0,0,0,-32329,0,0,0,2936,0,411389,0
411405,96,-362,-8286,-11,-43,36,328,-1,3,-1,0,184,-41,26,144,0,6,0,0,0,0,0,0,-32329,0,0,0,2935,0,411389,0
411415,74,-364,-8304,-14,-48,38,328,5,5,1,0,184,-37,26,144,0,6,0,0,0,0,0,0,-32328,0,0,0,2935,0,411396,0
411425,64,-396,-8326,-16,-43,40,327,-3,1,2,0,184,-17,26,144,0,6,0,0,0,0,0,0,-32329,0,0,0,2935,0,411396,0
411435,66,-392,-8296,-15,-40,38,327,0,-1,0,0,182,-10,26,144,0,6,0,0,0,0,0,0,-32329,0,0,0,2935,0,411396,0
411445,74,-372,-8288,-17,-35,41,327,-5,-4,-1,0,183,-20,26,144,0,6,0,0,0,0,0,0,-32329,0,0,0,2936,0,411396,0
411455,76,-380,-8294,-15,-42,35,328,1,-2,0,0,181,-24,26,144,0,6,0,0,0,0,0,0,-32330,0,0,0,2935,0,411396,0
411465,102,-362,-8280,-18,-39,41,327,-1,-3,2,0,183,-29,26,144,0,6,0,0,0,0,0,0,-32329,0,0,0,2935,0,411396,0
411475,66,-400,-8314,-14,-41,41,329,-1,-4,0,0,188,-15,26,144,0,6,0,0,0,0,0,0,-32329,0,0,0,2935,0,411396,0
411485,106,-352,-8296,-18,-34,37,326,-7,0,0,0,185,-17,26,144,0,6,0,0,0,0,0,0,-32329,0,0,0,2935,0,411400,0
411495,104,-358,-8286,-16,-42,42,327,-3,0,-3,0,185,-13,26,144,0,6,0,0,0,0,0,0,-32329,0,0,0,2935,0,411400,0
411505,90,-374,-8322,-14,-37,40,328,0,0,-1,0,185,-26,26,144,0,6,0,0,0,0,0,0,-32329,0,0,0,2935,0,411402,0
411515,106,-372,-8320,-16,-42,42,328,-2,2,2,0,187,-22,26,144,0,6,0,0,0,0,0,0,-32329,0,0,0,2935,0,411407,0
411525,68,-390,-8284,-12,-39,40,328,-4,3,-2,0,184,-28,26,144,0,6,0,0,0,0,0,0,-32327,0,0,0,2935,0,411432,0
411535,80,-382,-8288,-13,-42,38,328,3,0,0,0,182,-24,26,144,0,6,0,0,0,0,0,0,-32329,0,0,0,2936,0,411482,0
411545,52,-382,-8280,-17,-42,38,329,4,-4,0,0,182,-46,26,144,0,6,0,0,0,0,0,0,-32329,0,0,0,2935,0,411507,0
411555,82,-356,-8306,-14,-42,38,327,0,1,-4,0,183,-31,26,144,0,6,0,0,0,0,0,0,-32329,0,0,0,2936,0,411557,0
411565,100,-384,-8296,-19,-36,38,327,-2,-1,0,0,181,-34,26,144,0,6,0,0,0,0,0,0,-32328,0,0,0,2935,0,411583,0
411575,92,-354,-8302,-11,-38,40,327,0,3,0,0,180,-27,26,144,0,6,0,0,0,0,0,0,-32329,0,0,0,2935,0,411594,0
411585,106,-378,-8296,-17,-45,44,327,-2,2,1,0,181,-16,26,144,0,6,0,0,0,0,0,0,-32330,0,0,0,2935,0,411606,0
411595,82,-390,-8284,-16,-43,39,328,-2,3,1,0,185,-25,26,144,0,6,0,0,0,0,0,0,-32329,0,0,0,2935,0,411606,0
411605,78,-358,-8310,-17,-39,43,328,1,0,0,0,188,-25,26,144,0,6,0,0,0,0,0,0,-32329,0,0,0,2935,0,411606,0
411615,64,-374,-8302,-17,-37,38,327,-3,0,0,0,186,-34,26,144,0,6,0,0,0,0,0,0,-32329,0,0,0,2935,0,411606,0
411625,72,-372,-8284,-13,-36,35,328,-1,2,3,0,184,-44,26,144,0,6,0,0,0,0,0,0,-32329,0,0,0,2935,0,411606,0
411635,62,-376,-8282,-11,-38,38,326,-5,2,1,0,178,-62,26,144,0,6,0,0,0,0,0,0,-32329,0,0,0,2935,0,411606,0
411645,76,-392,-8318,-14,-42,39,328,-2,2,-2,0,182,-58,26,144,0,6,0,0,0,0,0,0,-32329,0,0,0,2935,0,411606,0
411655,86,-360,-8306,-13,-42,38,327,-6,-2,0,0,179,-52,26,144,0,6,0,0,0,0,0,0,-32329,0,0,0,2935,0,411616,0
411665,88,-360,-8280,-23,-39,32,328,-2,-2,0,0,184,-34,26,144,0,6,0,0,0,0,0,0,-32329,0,0,0,2936,0,411616,0
411675,84,-380,-8274,-20,-44,43,328,2,0,-1,0,178,-42,26,144,0,6,0,0,0,0,0,0,-32329,0,0,0,2935,0,411616,0
411685,100,-402,-8310,-21,-41,35,327,-3,3,0,0,183,-30,26,144,0,6,0,0,0,0,0,0,-32329,0,0,0,2935,0,411616,0
411695,98,-350,-8320,-15,-40,42,328,0,1,2,0,182,-50,26,144,0,6,0,0,0,0,0,0,-32329,0,0,0,2935,0,411616,0
411705,88,-380,-8274,-17,-40,40,327,-9,0,-3,0,183,-41,26,144,0,6,0,0,0,0,0,0,-32329,0,0,0,2936,0,411616,0
411715,74,-362,-8282,-16,-42,42,328,0,-6,2,0,183,-53,26,144,0,6,0,0,0,0,0,0,-32330,0,0,0,2935,0,411641,0
411725,78,-406,-8298,-17,-37,43,326,0,0,1,0,186,-48,26,144,0,6,0,0,0,0,0,0,-32330,0,0,0,2934,0,411661,0
411735,86,-370,-8314,-14,-46,40,327,0,0,0,0,186,-37,26,144,0,6,0,0,0,0,0,0,-32330,0,0,0,2933,0,411695,0
411745,100,-366,-8288,-20,-45,37,327,-2,1,-1,0,188,-54,26,144,0,6,0,0,0,0,0,0,-32329,0,0,0,2934,0,411714,0
411755,72,-390,-8288,-15,-43,41,327,-1,-3,1,0,188,-26,26,144,0,6,0,0,0,0,0,0,-32328,0,0,0,2935,0,411717,0
411765,68,-392,-8306,-16,-39,36,327,-3,2,1,0,190,-47,26,144,0,6,0,0,0,0,0,0,-32329,0,0,0,2936,0,411717,0
411775,76,-406,-8290,-12,-32,44,328,-6,0,3,0,187,-47,26,144,0,6,0,0,0,0,0,0,-32328,0,0,0,2935,0,411717,0
411785,90,-406,-8296,-13,-38,37,328,-1,-4,0,0,183,-55,26,144,0,6,0,0,0,0,0,0,-32329,0,0,0,2934,0,411721,0
411795,110,-382,-8306,-17,-37,41,328,-5,-1,1,0,181,-44,26,144,0,6,0,0,0,0,0,0,-32328,0,0,0,2935,0,411725,0
411805,116,-356,-8310,-17,-43,41,328,-3,-1,0,0,182,-26,26,144,0,6,0,0,0,0,0,0,-32328,0,0,0,2935,0,411725,0
411815,94,-380,-8282,-18,-41,35,328,-2,-1,2,0,186,-3,26,144,0,6,0,0,0,0,0,0,-32329,0,0,0,2936,0,411725,0
411825,72,-358,-8298,-17,-36,42,328,5,2,0,0,182,9,26,144,0,6,0,0,0,0,0,0,-32329,0,0,0,2936,0,411725,0
411835,100,-352,-8302,-20,-34,39,327,-9,2,-1,0,184,12,26,144,0,6,0,0,0,0,0,0,-32330,0,0,0,2935,0,411730,0
411845,94,-376,-8326,-18,-38,39,328,3,-3,1,0,183,-26,26,144,0,6,0,0,0,0,0,0,-32331,0,0,0,2935,0,411758,0
411855,82,-382,-8304,-16,-45,41,329,1,6,3,0,185,-52,26,144,0,6,0,0,0,0,0,0,-32330,0,0,0,2935,0,411761,0
411865,86,-382,-8312,-20,-39,37,328,4,0,0,0,182,-93,26,144,0,6,0,0,0,0,0,0,-32329,0,0,0,2935,0,411766,0
411875,84,-366,-8298,-18,-42,39,329,1,0,3,0,180,-84,26,144,0,6,0,0,0,0,0,0,-32330,0,0,0,2935,0,411768,0
411885,110,-372,-8310,-24,-34,39,328,3,-2,0,0,183,-69,26,144,0,6,0,0,0,0,0,0,-32330,0,0,0,2936,0,411781,0
411895,98,-414,-8306,-19,-34,41,328,10,2,-1,0,182,-79,26,144,0,6,0,0,0,0,0,0,-32329,0,0,0,2936,0,411784,0
411905,94,-370,-8232,-10,-40,42,327,1,2,1,0,185,-89,26,144,0,6,0,0,0,0,0,0,-32329,0,0,0,2935,0,411796,0
411915,128,-368,-8342,-18,-37,40,329,0,3,-3,0,186,-99,26,144,0,6,0,0,0,0,0,0,-32330,0,0,0,2936,0,411804,0
411925,58,-398,-8286,-11,-43,45,328,-1,0,-1,0,182,-82,26,144,0,6,0,0,0,0,0,0,-32329,0,0,0,2936,0,411813,0
411935,88,-384,-8312,-15,-45,36,330,9,11,-1,0,184,-65,26,144,0,6,0,0,0,0,0,0,-32329,0,0,0,2935,0,411827,0
411945,56,-380,-8306,-13,-43,38,329,9,1,-4,0,183,-78,26,144,0,6,0,0,0,0,0,0,-32329,0,0,0,2935,0,411838,0
411955,58,-346,-8298,-23,-38,44,327,-1,2,3,0,185,-59,26,144,0,6,0,0,0,0,0,0,-32329,0,0,0,2935,0,411844,0
411965,98,-354,-8298,-13,-35,39,328,-4,3,-1,0,185,-66,26,144,0,6,0,0,0,0,0,0,-32329,0,0,0,2935,0,411865,0
411975,96,-374,-8298,-17,-37,42,328,0,-4,-1,0,183,-9,26,144,0,6,0,0,0,0,0,0,-32329,0,0,0,2933,0,411872,0
411985,92,-390,-8302,-19,-37,41,328,-7,0,-1,0,186,5,26,144,0,6,0,0,0,0,0,0,-32329,0,0,0,2936,0,411875,0
411995,98,-350,-8300,-14,-37,37,327,-5,-5,-1,0,185,11,26,144,0,6,0,0,0,0,0,0,-32328,0,0,0,2935,0,411886,0
412005,100,-362,-8300,-18,-45,43,329,3,3,2,0,177,-17,26,144,0,6,0,0,0,0,0,0,-32329,0,0,0,2935,0,411896,0
412015,86,-356,-8292,-17,-38,37,328,0,3,1,0,175,-43,26,144,0,6,0,0,0,0,0,0,-32330,0,0,0,2935,0,411912,0
412025,58,-386,-8302,-18,-42,40,328,0,-1,1,0,176,-44,26,144,0,6,0,0,0,0,0,0,-32329,0,0,0,2936,0,411917,0
412035,52,-382,-8276,-17,-44,47,329,6,2,1,0,178,-60,26,144,0,6,0,0,0,0,0,0,-32328,0,0,0,2936,0,411942,0
412045,72,-390,-8294,-17,-39,43,328,2,6,0,0,179,-45,26,144,0,6,0,0,0,0,0,0,-32329,0,0,0,2935,0,411947,0
412055,92,-390,-8306,-15,-38,37,327,1,-2,-1,0,178,-25,26,144,0,6,0,0,0,0,0,0,-32329,0,0,0,2936,0,411950,0
412065,94,-374,-8308,-18,-37,36,327,-3,2,-1,0,182,-15,26,144,0,6,0,0,0,0,0,0,-32329,0,0,0,2936,0,411953,0
412075,104,-368,-8306,-18,-39,41,328,4,-4,0,0,182,-17,26,144,0,6,0,0,0,0,0,0,-32329,0,0,0,2935,0,411971,0
412085,88,-390,-8304,-19,-40,37,329,12,4,-3,0,184,-46,26,144,0,6,0,0,0,0,0,0,-32329,0,0,0,2934,0,411983,0
412095,78,-368,-8296,-14,-44,38,328,-4,7,1,0,182,-47,26,144,0,6,0,0,0,0,0,0,-32330,0,0,0,2936,0,411986,0
412105,72,-394,-8254,-15,-38,43,328,-2,0,-1,0,182,-82,26,144,0,6,0,0,0,0,0,0,-32329,0,0,0,2935,0,412009,0
412115,96,-396,-8332,-16,-37,42,327,-1,-2,-1,0,180,-81,26,144,0,6,0,0,0,0,0,0,-32329,0,0,0,2935,0,412017,0
412125,100,-370,-8310,-15,-43,39,328,1,-4,1,0,178,-72,26,144,0,6,0,0,0,0,0,0,-32330,0,0,0,2935,0,412024,0
412135,106,-398,-8346,-18,-42,38,329,4,0,-2,0,176,-85,26,144,0,6,0,0,0,0,0,0,-32329,0,0,0,2936,0,412030,0
412145,66,-360,-8292,-17,-41,44,327,3,-4,0,0,177,-67,26,144,0,6,0,0,0,0,0,0,-32328,0,0,0,2936,0,412053,0
412155,76,-386,-8274,-19,-37,41,327,-1,-1,5,0,180,-26,26,144,0,6,0,0,0,0,0,0,-32329,0,0,0,2935,0,412055,0
412165,84,-368,-8312,-16,-45,43,328,1,2,0,0,181,-18,26,144,0,6,0,0,0,0,0,0,-32329,0,0,0,2936,0,412061,0
412175,116,-358,-8298,-13,-39,38,329,2,5,-1,0,182,-10,26,144,0,6,0,0,0,0,0,0,-32327,0,0,0,2935,0,412066,0
412185,120,-362,-8310,-17,-40,40,328,3,-1,0,0,182,-33,26,144,0,6,0,0,0,0,0,0,-32329,0,0,0,2934,0,412077,0
412195,102,-382,-8284,-15,-34,41,328,-4,-1,4,0,183,-39,26,144,0,6,0,0,0,0,0,0,-32329,0,0,0,2934,0,412107,0
412205,96,-388,-8298,-17,-41,41,328,3,4,2,0,181,-58,26,144,0,6,0,0,0,0,0,0,-32329,0,0,0,2935,0,412111,0
412215,62,-366,-8292,-14,-37,39,327,1,3,-2,0,180,-59,26,144,0,6,0,0,0,0,0,0,-32329,0,0,0,2935,0,412113,0
412225,82,-378,-8304,-16,-42,44,327,-4,1,1,0,179,-52,26,144,0,6,0,0,0,0,0,0,-32329,0,0,0,2934,0,412122,0
412235,80,-374,-8286,-17,-35,38,328,-3,-4,0,0,182,-29,26,144,0,6,0,0,0,0,0,0,-32330,0,0,0,2935,0,412127,0
412245,64,-382,-8296,-17,-42,42,328,-4,-1,1,0,181,-52,26,144,0,6,0,0,0,0,0,0,-32328,0,0,0,2935,0,412144,0
412255,70,-378,-8278,-18,-41,39,328,-4,-2,0,0,185,-58,26,144,0,6,0,0,0,0,0,0,-32329,0,0,0,2934,0,412152,0
412265,80,-372,-8322,-20,-39,40,327,0,-2,-1,0,181,-31,26,144,0,6,0,0,0,0,0,0,-32331,0,0,0,2934,0,412157,0
412275,80,-396,-8298,-20,-37,45,327,0,0,-1,0,180,-15,26,144,0,6,0,0,0,0,0,0,-32328,0,0,0,2935,0,412183,0
412285,68,-370,-8288,-18,-39,38,328,0,2,1,0,184,-24,26,144,0,6,0,0,0,0,0,0,-32329,0,0,0,2935,0,412188,0
412295,116,-318,-8286,-19,-45,37,327,-12,1,0,0,183,-34,26,144,0,6,0,0,0,0,0,0,-32329,0,0,0,2935,0,412190,0
412305,72,-394,-8274,-14,-43,44,327,0,1,-2,0,181,-44,26,144,0,6,0,0,0,0,0,0,-32328,0,0,0,2935,0,412194,0
412315,90,-400,-8264,-20,-42,39,328,-1,-1,-3,0,179,-29,26,144,0,6,0,0,0,0,0,0,-32330,0,0,0,2934,0,412209,0
412325,98,-374,-8292,-13,-43,41,327,-2,-1,3,0,183,-27,26,144,0,6,0,0,0,0,0,0,-32329,0,0,0,2934,0,412216,0
412335,104,-380,-8322,-13,-40,44,328,0,-7,0,0,183,-29,26,144,0,6,0,0,0,0,0,0,-32330,0,0,0,2934,0,412223,0
412345,86,-376,-8276,-16,-41,39,329,3,0,-1,0,179,-56,26,144,0,6,0,0,0,0,0,0,-32330,0,0,0,2934,0,412233,0
412355,74,-378,-8298,-18,-40,39,329,2,-4,3,0,179,-55,26,144,0,6,0,0,0,0,0,0,-32330,0,0,0,2936,0,412262,0
412365,82,-372,-8326,-13,-40,40,328,-4,-3,0,0,179,-55,26,144,0,6,0,0,0,0,0,0,-32329,0,0,0,2935,0,412269,0
412375,86,-378,-8280,-15,-41,41,328,-1,-3,0,0,180,-50,26,144,0,6,0,0,0,0,0,0,-32329,0,0,0,2935,0,412286,0
412385,98,-380,-8306,-17,-32,38,328,3,-1,-1,0,182,-39,26,144,0,6,0,0,0,0,0,0,-32329,0,0,0,2934,0,412290,0
412395,86,-370,-8292,-15,-35,39,327,-6,-3,2,0,180,-36,26,144,0,6,0,0,0,0,0,0,-32329,0,0,0,2934,0,412294,0
412405,106,-358,-8310,-18,-42,42,328,0,-2,0,0,183,-46,26,144,0,6,0,0,0,0,0,0,-32330,0,0,0,2935,0,412300,0
412415,76,-376,-8282,-18,-45,39,328,-2,0,4,0,181,-50,26,144,0,6,0,0,0,0,0,0,-32328,0,0,0,2935,0,412308,0
412425,92,-362,-8286,-19,-46,45,327,-5,-2,0,0,181,-29,26,144,0,6,0,0,0,0,0,0,-32329,0,0,0,2935,0,412332,0
412435,62,-380,-8298,-12,-38,37,328,0,0,0,0,179,-22,26,144,0,6,0,0,0,0,0,0,-32329,0,0,0,2935,0,412351,0
412445,76,-402,-8306,-14,-36,43,328,-1,1,2,0,178,-34,26,144,0,6,0,0,0,0,0,0,-32329,0,0,0,2935,0,412354,0
412455,100,-362,-8308,-14,-35,35,327,-3,1,0,0,185,-32,26,144,0,6,0,0,0,0,0,0,-32328,0,0,0,2935,0,412359,0
412465,74,-388,-8294,-18,-38,43,329,3,2,0,0,183,-10,26,144,0,6,0,0,0,0,0,0,-32329,0,0,0,2935,0,412361,0
412475,88,-386,-8288,-20,-38,43,328,-1,-4,0,0,182,-21,26,144,0,6,0,0,0,0,0,0,-32329,0,0,0,2935,0,412369,0
412485,72,-388,-8286,-16,-38,39,327,0,-3,-1,0,178,-34,26,144,0,6,0,0,0,0,0,0,-32330,0,0,0,2935,0,412375,0
412495,88,-366,-8304,-15,-40,35,329,10,4,-4,0,176,-62,26,144,0,6,0,0,0,0,0,0,-32330,0,0,0,2935,0,412389,0
412505,104,-394,-8272,-16,-38,42,328,9,0,4,0,178,-67,26,144,0,6,0,0,0,0,0,0,-32330,0,0,0,2935,0,412396,0
412515,74,-406,-8286,-16,-36,43,328,0,1,-4,0,179,-63,26,144,0,6,0,0,0,0,0,0,-32329,0,0,0,2935,0,412404,0
412525,98,-392,-8306,-17,-41,40,327,-5,-2,2,0,178,-65,26,144,0,6,0,0,0,0,0,0,-32329,0,0,0,2935,0,412421,0
412535,102,-398,-8350,-14,-43,42,327,0,2,2,0,182,-46,26,144,0,6,0,0,0,0,0,0,-32329,0,0,0,2935,0,412429,0
412545,110,-382,-8302,-17,-43,41,328,-4,-4,-4,0,182,-22,26,144,0,6,0,0,0,0,0,0,-32329,0,0,0,2935,0,412433,0
412555,76,-374,-8290,-18,-43,39,328,3,3,3,0,187,-38,26,144,0,6,0,0,0,0,0,0,-32329,0,0,0,2934,0,412443,0
412565,76,-376,-8312,-15,-41,35,327,0,-1,-2,0,183,-34,26,144,0,6,0,0,0,0,0,0,-32329,0,0,0,2935,0,412458,0
412575,82,-382,-8306,-18,-42,36,329,5,-2,2,0,182,-69,26,144,0,6,0,0,0,0,0,0,-32329,0,0,0,2935,0,412463,0
412585,84,-374,-8296,-16,-33,40,327,3,3,0,0,179,-68,26,144,0,6,0,0,0,0,0,0,-32329,0,0,0,2935,0,412479,0
412595,78,-384,-8306,-20,-32,39,328,5,-2,-2,0,179,-59,26,144,0,6,0,0,0,0,0,0,-32328,0,0,0,2935,0,412486,0
412605,78,-370,-8320,-22,-47,45,328,-1,0,1,0,173,-59,26,144,0,6,0,0,0,0,0,0,-32329,0,0,0,2935,0,412495,0
412615,110,-396,-8278,-15,-47,43,327,-3,1,3,0,173,-68,26,144,0,6,0,0,0,0,0,0,-32329,0,0,0,2935,0,412504,0
412625,84,-372,-8292,-20,-28,40,328,-7,-3,0,0,176,-23,26,144,0,6,0,0,0,0,0,0,-32329,0,0,0,2935,0,412513,0
412635,128,-410,-8326,-16,-34,44,328,7,-2,-2,0,176,-29,26,144,0,6,0,0,0,0,0,0,-32329,0,0,0,2934,0,412523,0
412645,74,-344,-8298,-10,-31,40,328,1,-3,-1,0,177,-39,26,144,0,6,0,0,0,0,0,0,-32329,0,0,0,2935,0,412533,0
412655,90,-356,-8294,-21,-40,34,328,1,-1,3,0,180,-45,26,144,0,6,0,0,0,0,0,0,-32329,0,0,0,2935,0,412546,0
412665,70,-388,-8312,-16,-43,44,328,0,0,0,0,180,-56,26,144,0,6,0,0,0,0,0,0,-32329,0,0,0,2935,0,412556,0
412675,98,-390,-8272,-14,-41,41,327,-3,-2,0,0,180,-44,26,144,0,6,0,0,0,0,0,0,-32329,0,0,0,2934,0,412564,0
412685,102,-372,-8298,-16,-33,38,327,-3,-1,-1,0,177,-58,26,144,0,6,0,0,0,0,0,0,-32330,0,0,0,2934,0,412579,0
412695,104,-408,-8334,-18,-38,38,327,-5,-2,-1,0,174,-70,26,144,0,6,0,0,0,0,0,0,-32328,0,0,0,2935,0,412584,0
412705,86,-372,-8274,-12,-35,42,328,-1,2,6,0,176,-74,26,144,0,6,0,0,0,0,0,0,-32329,0,0,0,2935,0,412595,0
412715,80,-402,-8278,-17,-46,39,327,-2,-3,0,0,174,-57,26,144,0,6,0,0,0,0,0,0,-32328,0,0,0,2935,0,412606,0
412725,136,-382,-8296,-17,-44,43,328,0,-2,5,0,179,-65,26,144,0,6,0,0,0,0,0,0,-32329,0,0,0,2935,0,412622,0
412735,116,-378,-8270,-14,-34,40,328,0,0,0,0,175,-87,26,144,0,6,0,0,0,0,0,0,-32329,0,0,0,2935,0,412624,0
412745,68,-382,-8316,-18,-38,43,328,-2,-1,2,0,179,-79,26,144,0,6,0,0,0,0,0,0,-32328,0,0,0,2935,0,412637,0
412755,98,-370,-8310,-21,-46,46,328,0,2,2,0,185,-72,26,144,0,6,0,0,0,0,0,0,-32330,0,0,0,2935,0,412643,0
412765,72,-410,-8266,-19,-50,38,328,-4,-2,-5,0,189,-57,26,144,0,6,0,0,0,0,0,0,-32329,0,0,0,2935,0,412655,0
412775,70,-372,-8298,-24,-54,39,327,-1,-1,-1,0,188,-78,26,144,0,6,0,0,0,0,0,0,-32328,0,0,0,2936,0,412666,0
412785,94,-382,-8296,-12,-44,40,328,-3,-1,-2,0,181,-50,26,144,0,6,0,0,0,0,0,0,-32330,0,0,0,2935,0,412674,0
412795,102,-394,-8282,-18,-27,45,328,-6,-4,-1,0,181,-39,26,144,0,6,0,0,0,0,0,0,-32329,0,0,0,2935,0,412684,0
412805,70,-374,-8320,-16,-30,42,327,-4,-6,3,0,183,-33,26,144,0,6,0,0,0,0,0,0,-32330,0,0,0,2935,0,412697,0
412815,86,-362,-8316,-17,-45,40,328,-1,2,-6,0,183,-66,26,144,0,6,0,0,0,0,0,0,-32329,0,0,0,2935,0,412703,0
412825,82,-390,-8304,-20,-52,43,327,-5,0,0,0,181,-69,26,144,0,6,0,0,0,0,0,0,-32330,0,0,0,2935,0,412713,0
412835,94,-400,-8300,-24,-44,41,327,-3,-3,-3,0,184,-71,26,144,0,6,0,0,0,0,0,0,-32329,0,0,0,2935,0,412728,0
412845,60,-372,-8276,-12,-38,40,328,3,0,-2,0,181,-74,26,144,0,6,0,0,0,0,0,0,-32330,0,0,0,2935,0,412735,0
412855,86,-392,-8278,-20,-28,38,328,-4,4,0,0,182,-82,26,144,0,6,0,0,0,0,0,0,-32328,0,0,0,2935,0,412744,0
412865,64,-374,-8324,-19,-32,40,328,-1,-1,-3,0,179,-59,26,144,0,6,0,0,0,0,0,0,-32330,0,0,0,2936,0,412756,0
412875,80,-372,-8280,-18,-44,37,328,1,2,0,0,185,-41,26,144,0,6,0,0,0,0,0,0,-32329,0,0,0,2935,0,412763,0
412885,100,-390,-8282,-20,-49,34,327,-5,0,0,0,183,-42,26,144,0,6,0,0,0,0,0,0,-32330,0,0,0,2934,0,412773,0
412895,60,-356,-8286,-14,-43,41,329,7,2,-1,0,185,-47,26,144,0,6,0,0,0,0,0,0,-32330,0,0,0,2935,0,412786,0
412905,76,-362,-8280,-17,-34,37,328,3,2,4,0,179,-55,26,144,0,6,0,0,0,0,0,0,-32330,0,0,0,2934,0,412794,0
412915,100,-394,-8320,-17,-32,38,327,-5,-4,-1,0,183,-68,26,144,0,6,0,0,0,0,0,0,-32330,0,0,0,2934,0,412803,0
412925,78,-396,-8172,-11,-39,39,327,-3,-2,7,0,183,-91,26,144,0,6,0,0,0,0,0,0,-32330,0,0,0,2935,0,412818,0
412935,72,-338,-8368,-18,-45,43,327,-2,-2,1,0,182,-71,26,144,0,6,0,0,0,0,0,0,-32328,0,0,0,2935,0,412823,0
412945,64,-376,-8356,-12,-50,45,328,1,2,-3,0,176,-79,26,144,0,6,0,0,0,0,0,0,-32330,0,0,0,2934,0,412834,0
412955,98,-370,-8316,-14,-45,39,328,-1,4,3,0,174,-68,26,144,0,6,0,0,0,0,0,0,-32330,0,0,0,2935,0,412846,0
412965,78,-360,-8334,-19,-41,41,328,3,0,-2,0,181,-64,26,144,0,6,0,0,0,0,0,0,-32330,0,0,0,2935,0,412857,0
412975,62,-338,-8286,-9,-42,44,327,-1,-2,1,0,178,-58,26,144,0,6,0,0,0,0,0,0,-32330,0,0,0,2935,0,412863,0
412985,70,-368,-8318,-18,-33,40,329,2,4,0,0,181,-37,26,144,0,6,0,0,0,0,0,0,-32330,0,0,0,2935,0,412877,0
412995,96,-400,-8282,-22,-36,40,329,5,0,-2,0,179,-48,26,144,0,6,0,0,0,0,0,0,-32328,0,0,0,2935,0,412884,0
413005,116,-346,-8220,-15,-41,44,328,0,2,1,0,180,-56,26,144,0,6,0,0,0,0,0,0,-32329,0,0,0,2935,0,412895,0
413015,74,-354,-8314,-14,-42,33,327,0,-2,1,0,178,-72,26,144,0,6,0,0,0,0,0,0,-32328,0,0,0,2934,0,412909,0
413025,94,-382,-8296,-17,-45,39,328,3,3,6,0,179,-55,26,144,0,6,0,0,0,0,0,0,-32329,0,0,0,2934,0,412914,0
413035,58,-404,-8294,-17,-48,39,328,0,-2,-2,0,179,-66,26,144,0,6,0,0,0,0,0,0,-32330,0,0,0,2933,0,412925,0
413045,94,-390,-8260,-20,-44,42,328,0,-1,-4,0,182,-74,26,144,0,6,0,0,0,0,0,0,-32328,0,0,0,2933,0,412936,0
413055,84,-384,-8306,-17,-40,41,329,8,5,1,0,185,-89,26,144,0,6,0,0,0,0,0,0,-32329,0,0,0,2934,0,412997,0
413065,70,-376,-8340,-17,-31,37,328,1,1,-2,0,183,-108,26,144,0,6,0,0,0,0,0,0,-32329,0,0,0,2934,0,412999,0
413075,74,-356,-8292,-21,-33,39,326,-12,-4,0,0,180,-81,26,144,0,6,0,0,0,0,0,0,-32329,0,0,0,2934,0,413004,0
413085,64,-384,-8280,-16,-37,38,327,-7,-2,-2,0,177,-71,26,144,0,6,0,0,0,0,0,0,-32329,0,0,0,2935,0,413007,0
413095,84,-344,-8294,-17,-42,40,329,0,1,-1,0,182,-35,26,144,0,6,0,0,0,0,0,0,-32329,0,0,0,2936,0,413018,0
413105,82,-348,-8318,-16,-48,40,328,0,0,0,0,184,-32,25,144,0,6,0,0,0,0,0,0,-32329,0,0,0,2933,0,413028,0
413115,82,-362,-8280,-19,-37,41,328,2,-2,0,0,182,-26,26,144,0,6,0,0,0,0,0,0,-32330,0,0,0,2935,0,413028,0
413125,80,-396,-8320,-16,-35,38,329,4,2,0,0,179,-38,26,144,0,6,0,0,0,0,0,0,-32329,0,0,0,2935,0,413030,0
413135,104,-386,-8288,-13,-36,39,328,3,-3,0,0,181,-14,26,144,0,6,0,0,0,0,0,0,-32328,0,0,0,2935,0,413038,0
413145,98,-358,-8264,-11,-44,40,327,2,1,-2,0,183,-26,26,144,0,6,0,0,0,0,0,0,-32330,0,0,0,2935,0,413042,0
413155,88,-368,-8296,-13,-45,39,328,-3,1,1,0,180,-20,26,144,0,6,0,0,0,0,0,0,-32329,0,0,0,2934,0,413045,0
413165,106,-388,-8294,-14,-39,39,327,-3,-3,-2,0,178,-48,26,144,0,6,0,0,0,0,0,0,-32328,0,0,0,2935,0,413056,0
413175,86,-386,-8294,-13,-39,39,328,-1,0,0,0,180,-47,26,144,0,6,0,0,0,0,0,0,-32329,0,0,0,2935,0,413063,0
413185,68,-362,-8318,-22,-37,41,327,-7,-3,-1,0,179,-26,26,144,0,6,0,0,0,0,0,0,-32329,0,0,0,2935,0,413073,0
413195,48,-382,-8288,-21,-43,37,328,0,0,-2,0,184,-42,26,144,0,6,0,0,0,0,0,0,-32329,0,0,0,2933,0,413087,0
413205,112,-396,-8326,-19,-42,40,328,2,2,0,0,177,-47,26,144,0,6,0,0,0,0,0,0,-32329,0,0,0,2933,0,413093,0
413215,66,-378,-8278,-17,-45,38,328,2,1,-4,0,182,-61,26,144,0,6,0,0,0,0,0,0,-32329,0,0,0,2933,0,413103,0
413225,60,-320,-8294,-15,-38,39,328,0,0,1,0,178,-53,26,144,0,6,0,0,0,0,0,0,-32329,0,0,0,2934,0,413116,0
413235,90,-422,-8288,-12,-45,38,327,-2,0,-1,0,180,-57,26,144,0,6,0,0,0,0,0,0,-32329,0,0,0,2935,0,413125,0
413245,64,-400,-8276,-20,-36,39,328,-2,1,0,0,178,-64,26,144,0,6,0,0,0,0,0,0,-32328,0,0,0,2935,0,413135,0
413255,78,-386,-8298,-16,-39,36,327,-3,3,1,0,181,-60,26,144,0,6,0,0,0,0,0,0,-32328,0,0,0,2935,0,413146,0
413265,102,-382,-8294,-20,-40,39,328,-3,-1,0,0,185,-54,26,144,0,6,0,0,0,0,0,0,-32329,0,0,0,2935,0,413157,0
413275,80,-392,-8290,-19,-43,45,328,2,1,0,0,182,-47,26,144,0,6,0,0,0,0,0,0,-32329,0,0,0,2935,0,413188,0
413285,92,-364,-8296,-14,-38,40,328,1,-1,-2,0,179,-48,26,144,0,6,0,0,0,0,0,0,-32329,0,0,0,2936,0,413192,0
413295,92,-362,-8306,-17,-41,40,328,5,5,-1,0,177,-57,26,144,0,6,0,0,0,0,0,0,-32328,0,0,0,2935,0,413195,0
413305,104,-384,-8298,-14,-39,38,328,-2,1,0,0,180,-16,26,144,0,6,0,0,0,0,0,0,-32329,0,0,0,2935,0,413200,0
413315,76,-404,-8296,-12,-41,39,328,0,0,-3,0,183,-29,26,144,0,6,0,0,0,0,0,0,-32328,0,0,0,2935,0,413206,0
413325,104,-378,-8314,-15,-38,43,328,-5,0,1,0,182,-25,26,144,0,6,0,0,0,0,0,0,-32330,0,0,0,2934,0,413213,0
413335,82,-372,-8306,-18,-39,39,328,-2,-3,-2,0,180,-61,26,144,0,6,0,0,0,0,0,0,-32329,0,0,0,2935,0,413223,0
413345,80,-370,-8316,-16,-36,41,329,3,0,0,0,179,-35,26,144,0,6,0,0,0,0,0,0,-32329,0,0,0,2935,0,413268,0
413355,82,-322,-8282,-15,-43,38,328,1,-5,0,0,179,-42,26,144,0,6,0,0,0,0,0,0,-32329,0,0,0,2935,0,413270,0
413365,78,-368,-8290,-17,-39,42,328,-2,3,-2,0,182,-69,26,144,0,6,0,0,0,0,0,0,-32329,0,0,0,2935,0,413277,0
413375,74,-388,-8308,-16,-41,38,329,2,-2,-1,0,175,-72,26,144,0,6,0,0,0,0,0,0,-32329,0,0,0,2935,0,413282,0
413385,74,-372,-8292,-15,-37,42,328,-3,1,0,0,177,-59,26,144,0,6,0,0,0,0,0,0,-32329,0,0,0,2934,0,413292,0
413395,80,-372,-8296,-17,-42,39,327,-3,1,3,0,181,-71,26,144,0,6,0,0,0,0,0,0,-32329,0,0,0,2935,0,413297,0
413405,80,-376,-8292,-12,-39,41,328,0,2,0,0,184,-80,26,144,0,6,0,0,0,0,0,0,-32329,0,0,0,2935,0,413307,0
413415,96,-374,-8316,-20,-43,36,328,0,-3,0,0,188,-72,26,144,0,6,0,0,0,0,0,0,-32329,0,0,0,2935,0,413357,0
413425,114,-382,-8284,-17,-44,42,328,5,-5,2,0,184,-63,26,144,0,6,0,0,0,0,0,0,-32329,0,0,0,2934,0,413371,0
413435,100,-382,-8304,-14,-35,39,328,3,1,1,0,187,-45,26,144,0,6,0,0,0,0,0,0,-32328,0,0,0,2935,0,413373,0
413445,108,-378,-8328,-17,-40,37,328,0,0,0,0,182,-52,26,144,0,6,0,0,0,0,0,0,-32329,0,0,0,2934,0,413379,0
413455,86,-362,-8276,-11,-44,43,329,1,-1,-1,0,180,-57,26,144,0,6,0,0,0,0,0,0,-32329,0,0,0,2934,0,413379,0
413465,92,-366,-8294,-16,-38,42,328,-3,1,3,0,181,-41,26,144,0,6,0,0,0,0,0,0,-32328,0,0,0,2934,0,413379,0
413475,70,-384,-8278,-14,-40,41,329,0,0,0,0,181,-41,26,144,0,6,0,0,0,0,0,0,-32328,0,0,0,2936,0,413387,0
413485,100,-390,-8304,-15,-44,41,327,-6,-3,0,0,181,-41,26,144,0,6,0,0,0,0,0,0,-32329,0,0,0,2934,0,413389,0
413495,108,-346,-8300,-22,-42,38,329,4,1,-5,0,182,-47,26,144,0,6,0,0,0,0,0,0,-32330,0,0,0,2934,0,413394,0
413505,66,-376,-8316,-18,-38,38,327,0,3,4,0,181,-74,26,144,0,6,0,0,0,0,0,0,-32329,0,0,0,2936,0,413405,0
413515,76,-378,-8310,-15,-35,37,328,0,0,0,0,184,-65,26,144,0,6,0,0,0,0,0,0,-32328,0,0,0,2934,0,413410,0
413525,92,-356,-8308,-15,-39,41,328,0,0,-1,0,180,-78,26,144,0,6,0,0,0,0,0,0,-32328,0,0,0,2935,0,413420,0
413535,96,-384,-8282,-15,-37,40,328,-4,0,1,0,180,-57,26,144,0,6,0,0,0,0,0,0,-32328,0,0,0,2934,0,413424,0
413545,80,-382,-8292,-23,-41,41,328,-1,-1,-1,0,176,-39,26,144,0,6,0,0,0,0,0,0,-32330,0,0,0,2935,0,413446,0
413555,88,-380,-8274,-15,-43,39,327,1,0,-1,0,176,-57,26,144,0,6,0,0,0,0,0,0,-32328,0,0,0,2935,0,413448,0
413565,104,-408,-8290,-13,-42,37,328,-1,1,0,0,182,-54,26,144,0,6,0,0,0,0,0,0,-32329,0,0,0,2935,0,413453,0
413575,76,-368,-8300,-12,-43,38,329,5,-3,1,0,185,-63,26,144,0,6,0,0,0,0,0,0,-32330,0,0,0,2935,0,413464,0
413585,70,-386,-8266,-17,-39,43,327,0,1,-1,0,186,-89,26,144,0,6,0,0,0,0,0,0,-32329,0,0,0,2934,0,413478,0
413595,98,-344,-8288,-18,-43,41,327,-3,-4,0,0,180,-93,26,144,0,6,0,0,0,0,0,0,-32329,0,0,0,2935,0,413485,0
413605,90,-388,-8308,-15,-43,43,326,-4,1,-2,0,177,-87,26,144,0,6,0,0,0,0,0,0,-32328,0,0,0,2934,0,413515,0
413615,118,-370,-8334,-18,-36,42,328,3,-2,-2,0,178,-46,26,144,0,6,0,0,0,0,0,0,-32328,0,0,0,2934,0,413517,0
413625,94,-392,-8298,-16,-41,38,329,1,-2,0,0,179,-25,26,144,0,6,0,0,0,0,0,0,-32329,0,0,0,2935,0,413522,0
413635,82,-382,-8306,-18,-43,38,328,0,1,0,0,178,-38,26,144,0,6,0,0,0,0,0,0,-32328,0,0,0,2936,0,413524,0
413645,94,-418,-8314,-15,-45,41,329,1,-4,-1,0,179,-20,26,144,0,6,0,0,0,0,0,0,-32328,0,0,0,2935,0,413562,0
413655,104,-400,-8298,-16,-41,40,328,4,1,6,0,180,-17,26,144,0,6,0,0,0,0,0,0,-32328,0,0,0,2935,0,413569,0
413665,96,-368,-8272,-15,-38,41,328,0,0,3,0,179,-7,26,144,0,6,0,0,0,0,0,0,-32329,0,0,0,2935,0,413581,0
413675,112,-358,-8302,-17,-39,42,328,7,-3,2,0,175,-40,26,144,0,6,0,0,0,0,0,0,-32328,0,0,0,2935,0,413584,0
413685,104,-374,-8294,-19,-40,40,328,5,0,1,1920,175,-49,26,144,0,6,0,0,0,0,0,0,-32329,0,0,0,2935,0,413590,0
413695,86,-362,-8310,-17,-41,40,328,0,-5,0,3904,178,-65,26,144,0,6,0,0,0,0,0,0,-32329,0,0,0,2935,0,413590,0
413705,100,-370,-8304,-13,-43,41,328,1,-1,-3,5168,183,-71,26,144,0,6,0,0,0,0,0,0,-32328,0,0,0,2936,0,413636,0
413715,100,-394,-8318,-16,-36,40,328,1,2,0,5168,181,-75,26,144,0,6,0,0,0,0,0,0,-32329,0,0,0,2935,0,413651,0
413725,70,-360,-8308,-12,-41,39,328,2,1,1,5160,179,-58,26,144,0,6,0,0,0,0,0,0,-32329,0,0,0,2936,0,413656,0
413735,82,-392,-8294,-14,-38,44,328,3,2,-3,5160,182,-39,26,144,0,6,0,0,0,0,0,0,-32329,0,0,0,2934,0,413667,0
413745,96,-372,-8274,-18,-42,42,328,-1,3,0,5160,182,-34,25,144,0,6,0,0,0,0,0,0,-32329,0,0,0,2934,0,413667,0
413755,62,-402,-8272,-19,-42,38,328,6,-2,1,5168,183,-37,26,144,0,6,0,0,0,0,0,0,-32329,0,0,0,2935,0,413667,0
413765,86,-372,-8296,-13,-37,35,328,-1,0,-3,5168,183,-28,26,144,0,6,0,0,0,0,0,0,-32328,0,0,0,2935,0,413671,0
413775,94,-368,-8322,-19,-44,42,329,-2,2,-1,5168,185,-21,26,144,0,6,0,0,0,0,0,0,-32329,0,0,0,2935,0,413682,0
413785,64,-416,-8298,-14,-36,40,328,-2,-1,0,5136,180,13,26,144,0,6,0,0,0,0,0,0,-32328,0,0,0,2935,0,413690,0
413795,96,-370,-8288,-16,-39,43,327,-1,-3,0,5168,177,11,26,144,0,6,0,0,0,0,0,0,-32329,0,0,0,2935,0,413697,0
413805,76,-406,-8312,-19,-40,38,327,-3,1,-1,5168,177,-13,26,144,0,6,0,0,0,0,0,0,-32329,0,0,0,2935,0,413702,0
413815,106,-372,-8278,-19,-41,39,328,0,-1,-3,5176,178,-42,26,144,0,6,0,0,0,0,0,0,-32329,0,0,0,2935,0,413712,0
413825,82,-366,-8292,-16,-40,44,328,-5,3,2,5168,181,-34,26,144,0,6,0,0,0,0,0,0,-32329,0,0,0,2934,0,413717,0
413835,88,-380,-8298,-17,-37,36,328,-1,-2,0,5176,181,-49,26,144,0,6,0,0,0,0,0,0,-32329,0,0,0,2935,0,413724,0
413845,108,-398,-8300,-13,-40,41,327,3,1,-1,5168,185,-35,26,144,0,6,0,0,0,0,0,0,-32329,0,0,0,2935,0,413746,0
413855,86,-366,-8280,-16,-39,40,328,0,4,1,5168,185,-47,26,144,0,6,0,0,0,0,0,0,-32329,0,0,0,2934,0,413749,0
413865,86,-376,-8310,-12,-41,40,328,-1,-2,0,5160,185,-40,26,144,0,6,0,0,0,0,0,0,-32329,0,0,0,2934,0,413765,0
413875,100,-384,-8270,-19,-44,41,328,0,1,0,5168,185,-55,26,144,0,6,0,0,0,0,0,0,-32329,0,0,0,2935,0,413772,0
413885,74,-364,-8318,-17,-45,36,328,-2,-3,1,5168,183,-45,26,144,0,6,0,0,0,0,0,0,-32329,0,0,0,2935,0,413777,0
413895,-102,36,-9294,76,68,45,328,0,2,1,5176,185,-25,26,144,0,6,0,0,0,0,0,0,-32329,0,0,0,2935,0,413783,0
413905,104,-256,-8316,22,194,46,327,-8,-2,2,5168,186,-40,26,144,0,6,0,0,0,0,0,0,-32329,0,0,0,2934,0,413793,0
413915,120,-394,-8314,16,145,27,329,-1,2,-4,5168,183,-58,26,144,0,6,0,0,0,0,0,0,-32329,0,0,0,2935,0,413814,0
413925,224,-510,-8212,-29,-90,39,329,3,3,0,5176,182,-86,26,144,0,6,0,0,0,0,0,0,-32330,0,0,0,2935,0,413831,0
413935,208,-250,-8526,-21,-232,52,328,0,-1,0,5168,176,-85,26,144,0,6,0,0,0,0,0,0,-32329,0,0,0,2934,0,413836,0
413945,74,-418,-8426,-60,-231,50,328,2,-1,1,5176,179,-79,26,144,0,6,0,0,0,0,0,0,-32328,0,0,0,2935,0,413847,0
413955,26,-338,-8438,-60,-158,47,327,0,-1,0,5160,180,-60,26,144,0,6,0,0,0,0,0,0,-32329,0,0,0,2934,0,413858,0
413965,24,-378,-8486,14,35,29,327,1,-3,1,5176,179,-72,26,144,0,6,0,0,0,0,0,0,-32329,0,0,0,2934,0,413861,0
413975,26,-414,-8322,40,153,24,328,0,2,0,5168,178,-75,26,144,0,6,0,0,0,0,0,0,-32329,0,0,0,2935,0,413866,0
413985,144,-352,-8252,16,172,27,327,-5,-2,-1,5160,179,-82,26,144,0,6,0,0,0,0,0,0,-32329,0,0,0,2934,0,413876,0
413995,148,-412,-8188,-8,61,42,328,-3,1,3,5168,180,-27,26,144,0,6,0,0,0,0,0,0,-32329,0,0,0,2935,0,413890,0
414005,202,-340,-8254,-35,-172,47,328,2,2,-1,5168,181,-43,26,144,0,6,0,0,0,0,0,0,-32328,0,0,0,2935,0,413899,0
414015,142,-402,-8216,-44,-262,47,328,-1,1,-4,5160,178,-41,26,144,0,6,0,0,0,0,0,0,-32329,0,0,0,2935,0,413903,0
414025,70,-394,-8294,-55,-219,50,327,-8,-1,1,5168,181,-45,26,144,0,6,0,0,0,0,0,0,-32329,0,0,0,2935,0,413913,0
414035,46,-350,-8372,-42,-115,46,327,0,-3,-1,5160,178,-44,26,144,0,6,0,0,0,0,0,0,-32329,0,0,0,2935,0,413926,0
414045,22,-390,-8382,5,59,39,328,0,3,1,5176,178,-45,26,144,0,6,0,0,0,0,0,0,-32329,0,0,0,2935,0,413934,0
414055,90,-370,-8322,10,119,35,328,3,1,3,5168,177,-66,26,144,0,6,0,0,0,0,0,0,-32329,0,0,0,2934,0,413944,0
414065,124,-386,-8244,1,80,35,327,0,-3,-2,5160,182,-76,26,144,0,6,0,0,0,0,0,0,-32330,0,0,0,2934,0,413967,0
414075,128,-346,-8268,-15,-17,40,328,0,1,-1,5168,184,-78,26,144,0,6,0,0,0,0,0,0,-32329,0,0,0,2934,0,413972,0
414085,112,-370,-8258,-23,-145,43,327,-4,3,0,5168,181,-45,26,144,0,6,0,0,0,0,0,0,-32328,0,0,0,2934,0,413982,0
414095,84,-426,-8290,-31,-177,44,327,-4,-4,3,5168,179,-27,26,144,0,6,0,0,0,0,0,0,-32329,0,0,0,2936,0,413987,0
414105,52,-402,-8320,-30,-112,48,329,8,4,-1,5168,180,-19,26,144,0,6,0,0,0,0,0,0,-32329,0,0,0,2935,0,413994,0
414115,48,-370,-8334,-22,-30,43,328,1,3,-3,5168,182,-34,26,144,0,6,0,0,0,0,0,0,-32329,0,0,0,2934,0,414011,0
414125,70,-406,-8340,3,55,38,328,0,0,3,5176,179,-71,26,144,0,6,0,0,0,0,0,0,-32328,0,0,0,2935,0,414016,0
414135,110,-326,-8288,-2,61,35,327,-1,-4,0,5160,180,-53,26,144,0,6,0,0,0,0,0,0,-32330,0,0,0,2935,0,414023,0
414145,112,-390,-8266,-14,-3,38,327,-1,-3,0,5168,176,-86,26,144,0,6,0,0,0,0,0,0,-32330,0,0,0,2934,0,414041,0
414155,110,-370,-8252,-16,-62,41,327,-3,2,-1,5168,179,-76,26,144,0,6,0,0,0,0,0,0,-32329,0,0,0,2933,0,414047,0
414165,110,-392,-8302,-32,-121,43,327,-4,-3,-3,5168,177,-57,26,144,0,6,0,0,0,0,0,0,-32329,0,0,0,2935,0,414057,0
414175,94,-396,-8280,-31,-115,47,328,-1,1,2,5168,184,-40,26,144,0,6,0,0,0,0,0,0,-32329,0,0,0,2935,0,414071,0
414185,80,-334,-8340,-23,-75,39,328,0,-3,0,5160,184,-17,26,144,0,6,0,0,0,0,0,0,-32329,0,0,0,2935,0,414076,0
414195,86,-382,-8338,-12,-18,35,328,0,-2,3,5168,188,-34,26,144,0,6,0,0,0,0,0,0,-32329,0,0,0,2935,0,414084,0
414205,104,-354,-8290,-9,26,39,327,-5,-3,3,5160,190,-31,26,144,0,6,0,0,0,0,0,0,-32330,0,0,0,2933,0,414099,0
414215,114,-396,-8296,-19,20,40,327,-3,-5,-1,5160,186,-49,26,144,0,6,0,0,0,0,0,0,-32329,0,0,0,2935,0,414106,0
414225,108,-404,-8270,-37,-80,40,327,3,3,1,5168,181,-81,26,144,0,6,0,0,0,0,0,0,-32330,0,0,0,2934,0,414114,0
414235,132,-396,-8288,-43,-156,46,328,3,-1,0,5176,177,-75,26,144,0,6,0,0,0,0,0,0,-32330,0,0,0,2936,0,414123,0
414245,66,-372,-8336,-28,-172,41,328,-4,-4,-3,5168,176,-58,26,144,0,6,0,0,0,0,0,0,-32330,0,0,0,2934,0,414168,0
414255,74,-388,-8292,-15,-110,42,328,-3,1,0,5160,179,-55,26,144,0,6,0,0,0,0,0,0,-32329,0,0,0,2935,0,414173,0
414265,68,-340,-8310,-18,27,38,328,1,-2,-2,5160,177,-59,26,144,0,6,0,0,0,0,0,0,-32328,0,0,0,2935,0,414196,0
414275,90,-352,-8326,-9,59,36,328,2,2,0,5168,176,-46,26,144,0,6,0,0,0,0,0,0,-32328,0,0,0,2934,0,414199,0
414285,94,-360,-8314,-5,33,40,328,-11,0,-1,5168,179,-16,26,144,0,6,0,0,0,0,0,0,-32328,0,0,0,2935,0,414214,0
414295,106,-382,-8260,-14,-35,36,328,0,-1,-1,5168,180,-30,26,144,0,6,0,0,0,0,0,0,-32330,0,0,0,2935,0,414219,0
414305,94,-354,-8314,-32,-111,41,327,3,5,-2,5168,180,-56,26,144,0,6,0,0,0,0,0,0,-32328,0,0,0,2935,0,414227,0
414315,76,-366,-8320,-25,-117,41,327,-7,1,0,5160,174,-90,26,144,0,6,0,0,0,0,0,0,-32329,0,0,0,2935,0,414230,0
414325,62,-374,-8318,-21,-67,39,328,1,2,3,5168,178,-107,26,144,0,6,0,0,0,0,0,0,-32329,0,0,0,2933,0,414271,0
414335,66,-380,-8308,-13,-18,39,327,-5,2,-2,5160,178,-115,26,144,0,6,0,0,0,0,0,0,-32329,0,0,0,2935,0,414279,0
414345,100,-382,-8300,-8,23,42,327,-1,-3,0,5168,180,-148,26,144,0,6,0,0,0,0,0,0,-32329,0,0,0,2935,0,414281,0
414355,90,-368,-8302,-11,13,40,328,3,-1,4,5168,176,-138,26,144,0,6,0,0,0,0,0,0,-32329,0,0,0,2935,0,414289,0
414365,120,-362,-8276,-16,-47,40,327,-3,0,0,5152,179,-91,26,144,0,6,0,0,0,0,0,0,-32329,0,0,0,2934,0,414302,0
414375,100,-376,-8292,-21,-77,42,328,0,-1,-2,5168,182,-49,26,144,0,6,0,0,0,0,0,0,-32329,0,0,0,2935,0,414302,0
414385,96,-384,-8308,-23,-84,42,327,-1,2,-6,5168,180,-21,26,144,0,6,0,0,0,0,0,0,-32329,0,0,0,2935,0,414302,0
414395,78,-366,-8320,-22,-58,43,328,0,0,0,5168,182,-33,26,144,0,6,0,0,0,0,0,0,-32329,0,0,0,2935,0,414309,0
414405,90,-354,-8286,-20,-17,42,328,5,0,-1,5168,180,-47,26,144,0,6,0,0,0,0,0,0,-32329,0,0,0,2936,0,414311,0
414415,70,-374,-8314,-11,-6,39,327,0,0,0,5160,182,-68,26,144,0,6,0,0,0,0,0,0,-32329,0,0,0,2935,0,414318,0
414425,88,-390,-8286,-10,-27,36,328,7,1,-2,5168,181,-82,26,144,0,6,0,0,0,0,0,0,-32328,0,0,0,2935,0,414331,0
414435,92,-368,-8284,-11,-46,38,327,-4,1,0,5168,179,-80,26,144,0,6,0,0,0,0,0,0,-32329,0,0,0,2934,0,414341,0
414445,86,-366,-8296,-17,-64,37,326,-9,4,-2,5168,178,-89,26,144,0,6,0,0,0,0,0,0,-32328,0,0,0,2935,0,414346,0
414455,106,-378,-8288,-19,-56,38,329,8,2,0,5168,180,-80,26,144,0,6,0,0,0,0,0,0,-32329,0,0,0,2935,0,414354,0
414465,72,-368,-8304,-12,-37,39,327,0,5,0,5152,182,-65,26,144,0,6,0,0,0,0,0,0,-32329,0,0,0,2935,0,414356,0
414475,80,-354,-8312,-18,-23,45,328,0,-2,2,5168,183,-62,26,144,0,6,0,0,0,0,0,0,-32329,0,0,0,2934,0,414364,0
414485,78,-282,-8528,5,-14,43,327,-2,-7,0,5168,179,-63,26,144,0,6,0,0,0,0,0,0,-32328,0,0,0,2935,0,414383,0
414495,10,-420,-8342,7,22,34,328,2,-4,1,5160,179,-66,26,144,0,6,0,0,0,0,0,0,-32329,0,0,0,2935,0,414393,0
414505,194,-466,-8210,-49,-20,51,327,-2,-1,3,5160,180,-55,26,144,0,6,0,0,0,0,0,0,-32329,0,0,0,2935,0,414398,0
414515,42,-344,-8380,-34,-94,48,328,1,-1,-4,5160,185,-81,26,144,0,6,0,0,0,0,0,0,-32329,0,0,0,2935,0,414408,0
414525,144,-368,-8344,-9,-142,38,328,0,6,1,5168,177,-86,26,144,0,6,0,0,0,0,0,0,-32329,0,0,0,2935,0,414413,0
414535,8,-352,-8382,-7,-70,45,327,-7,0,0,5168,177,-91,26,144,0,6,0,0,0,0,0,0,-32329,0,0,0,2934,0,414423,0
414545,72,-408,-8314,-4,85,31,327,-2,2,-4,5168,174,-109,26,144,0,6,0,0,0,0,0,0,-32329,0,0,0,2935,0,414446,0
414555,128,-378,-8392,-2,115,52,327,0,-1,0,5168,177,-107,26,144,0,6,0,0,0,0,0,0,-32328,0,0,0,2935,0,414458,0
414565,60,-390,-8246,15,123,53,328,-5,-1,-2,5160,179,-103,26,144,0,6,0,0,0,0,0,0,-32329,0,0,0,2935,0,414461,0
414575,70,-402,-8218,-19,21,34,328,-5,2,0,5168,178,-75,26,144,0,6,0,0,0,0,0,0,-32329,0,0,0,2933,0,414466,0
414585,202,-384,-8266,-37,-207,41,328,-1,-2,0,5168,180,-48,26,144,0,6,0,0,0,0,0,0,-32329,0,0,0,2935,0,414484,0
414595,118,-360,-8284,-42,-267,50,328,6,-1,-6,5168,179,-18,26,144,0,6,0,0,0,0,0,0,-32327,0,0,0,2934,0,414489,0
414605,48,-366,-8288,-49,-214,42,327,-7,-1,2,5168,177,-7,26,144,0,6,0,0,0,0,0,0,-32328,0,0,0,2936,0,414496,0
414615,40,-344,-8366,-40,-123,43,328,1,0,-5,5160,177,-4,25,144,0,6,0,0,0,0,0,0,-32329,0,0,0,2935,0,414503,0
414625,30,-378,-8344,-2,33,40,328,-1,-3,3,5168,180,-12,25,144,0,6,0,0,0,0,0,0,-32329,0,0,0,2935,0,414519,0
414635,28,-360,-8288,-3,112,36,329,3,-3,0,5176,178,-32,26,144,0,6,0,0,0,0,0,0,-32329,0,0,0,2935,0,414528,0
414645,94,-368,-8334,1,106,41,327,-2,0,-2,5168,182,-67,26,144,0,6,0,0,0,0,0,0,-32329,0,0,0,2935,0,414534,0
414655,138,-370,-8306,3,29,38,330,6,3,3,5168,179,-72,26,144,0,6,0,0,0,0,0,0,-32329,0,0,0,2935,0,414544,0
414665,154,-384,-8236,-15,-95,38,327,1,1,-3,5160,181,-60,26,144,0,6,0,0,0,0,0,0,-32329,0,0,0,2935,0,414563,0
414675,126,-372,-8268,-33,-136,47,327,2,2,-1,5176,179,-64,26,144,0,6,0,0,0,0,0,0,-32328,0,0,0,2936,0,414571,0
414685,50,-374,-8354,-26,-127,39,327,0,-2,0,5168,178,-42,26,144,0,6,0,0,0,0,0,0,-32330,0,0,0,2935,0,414581,0
414695,90,-370,-8340,-16,-57,38,328,-1,1,-8,5160,174,-69,26,144,0,6,0,0,0,0,0,0,-32328,0,0,0,2935,0,414588,0
414705,52,-372,-8292,-9,43,37,328,3,0,1,5168,176,-57,26,144,0,6,0,0,0,0,0,0,-32330,0,0,0,2935,0,414593,0
414715,76,-382,-8324,-10,53,39,327,-2,-2,-1,5168,177,-87,26,144,0,6,0,0,0,0,0,0,-32330,0,0,0,2933,0,414616,0
414725,100,-380,-8288,-6,-21,38,328,-4,-2,0,5168,177,-72,26,144,0,6,0,0,0,0,0,0,-32329,0,0,0,2935,0,414623,0
414735,98,-352,-8248,-20,-82,40,329,8,0,-3,5168,176,-90,26,144,0,6,0,0,0,0,0,0,-32330,0,0,0,2936,0,414626,0
414745,96,-368,-8292,-32,-113,45,328,2,4,0,5152,174,-71,26,144,0,6,0,0,0,0,0,0,-32330,0,0,0,2935,0,414634,0
414755,70,-390,-8312,-29,-95,41,327,0,1,2,5168,176,-66,26,144,0,6,0,0,0,0,0,0,-32328,0,0,0,2935,0,414645,0
414765,64,-382,-8304,-12,-22,41,327,-1,3,1,5160,180,-63,26,144,0,6,0,0,0,0,0,0,-32329,0,0,0,2936,0,414656,0
414775,80,-374,-8288,-6,5,36,328,0,1,3,5160,180,-56,26,144,0,6,0,0,0,0,0,0,-32329,0,0,0,2935,0,414664,0
414785,92,-382,-8302,-12,3,34,328,-5,-1,-2,5168,182,-47,26,144,0,6,0,0,0,0,0,0,-32330,0,0,0,2935,0,414686,0
414795,98,-396,-8310,-8,-23,35,326,-14,-8,2,5144,182,-46,26,144,0,6,0,0,0,0,0,0,-32328,0,0,0,2934,0,414691,0
414805,102,-376,-8262,-19,-59,38,327,0,-5,-1,5168,183,-26,26,144,0,6,0,0,0,0,0,0,-32329,0,0,0,2935,0,414698,0
414815,90,-390,-8300,-18,-66,41,328,2,1,0,5168,184,-50,26,144,0,6,0,0,0,0,0,0,-32328,0,0,0,2935,0,414706,0
414825,90,-360,-8300,-22,-64,38,328,1,3,-1,5168,179,-57,26,144,0,6,0,0,0,0,0,0,-32329,0,0,0,2934,0,414731,0
414835,82,-382,-8292,-15,-51,37,328,0,2,0,5168,182,-63,26,144,0,6,0,0,0,0,0,0,-32329,0,0,0,2934,0,414746,0
414845,74,-382,-8278,-23,-34,38,328,-2,0,1,5160,185,-63,26,144,0,6,0,0,0,0,0,0,-32330,0,0,0,2933,0,414751,0
414855,82,-354,-8306,-19,-36,42,328,0,-2,0,5168,186,-50,26,144,0,6,0,0,0,0,0,0,-32329,0,0,0,2934,0,414753,0
414865,106,-372,-8296,-16,-45,37,327,2,0,-2,5168,183,-43,26,144,0,6,0,0,0,0,0,0,-32329,0,0,0,2933,0,414761,0
414875,96,-370,-8330,-24,-51,43,327,-1,0,-1,5160,178,-60,26,144,0,6,0,0,0,0,0,0,-32330,0,0,0,2935,0,414777,0
414885,92,-354,-8286,-11,-43,45,327,0,-1,1,5168,176,-76,26,144,0,6,0,0,0,0,0,0,-32330,0,0,0,2933,0,414796,0
414895,68,-348,-8300,-19,-33,37,328,2,-1,0,5160,178,-48,26,144,0,6,0,0,0,0,0,0,-32328,0,0,0,2935,0,414805,0
414905,114,-390,-8296,-18,-35,40,328,6,0,-1,5168,178,-53,26,144,0,6,0,0,0,0,0,0,-32330,0,0,0,2935,0,414822,0
414915,86,-378,-8300,-15,-46,38,329,2,2,-1,5168,183,-24,26,144,0,6,0,0,0,0,0,0,-32329,0,0,0,2935,0,414830,0
414925,96,-386,-8316,-16,-47,42,329,5,4,-2,5168,180,-49,26,144,0,6,0,0,0,0,0,0,-32328,0,0,0,2934,0,414843,0
414935,84,-366,-8284,-17,-41,39,327,0,-1,-2,5168,179,-55,26,144,0,6,0,0,0,0,0,0,-32328,0,0,0,2935,0,414848,0
414945,64,-380,-8310,-18,-31,45,327,-4,-3,-2,5160,179,-46,26,144,0,6,0,0,0,0,0,0,-32329,0,0,0,2935,0,414856,0
414955,90,-368,-8300,-15,-33,41,328,0,3,1,5168,182,-49,26,144,0,6,0,0,0,0,0,0,-32329,0,0,0,2934,0,414858,0
414965,86,-388,-8296,-14,-45,38,328,0,1,-2,5168,182,-41,26,144,0,6,0,0,0,0,0,0,-32328,0,0,0,2935,0,414866,0
414975,88,-388,-8306,-14,-48,39,328,0,-1,1,5152,177,-47,26,144,0,6,0,0,0,0,0,0,-32329,0,0,0,2934,0,414894,0
414985,92,-358,-8306,-12,-38,34,328,0,-1,-2,5168,177,-77,26,144,0,6,0,0,0,0,0,0,-32328,0,0,0,2934,0,414917,0
414995,88,-368,-8294,-13,-35,36,328,4,0,0,5160,175,-86,26,144,0,6,0,0,0,0,0,0,-32329,0,0,0,2935,0,414925,0
415005,72,-376,-8278,-16,-34,34,328,0,3,-2,5184,179,-82,26,144,0,6,0,0,0,0,0,0,-32329,0,0,0,2935,0,414927,0
415015,106,-402,-8300,-14,-42,41,327,0,-2,0,5168,185,-52,26,144,0,6,0,0,0,0,0,0,-32329,0,0,0,2935,0,414936,0
415025,86,-346,-8310,-18,-45,38,328,6,4,0,5160,187,-42,26,144,0,6,0,0,0,0,0,0,-32329,0,0,0,2934,0,414936,0
415035,66,-402,-8300,-18,-37,42,328,4,0,3,5168,186,-42,26,144,0,6,0,0,0,0,0,0,-32328,0,0,0,2935,0,414936,0
415045,92,-374,-8290,-17,-35,42,328,4,-1,0,5160,180,-23,26,144,0,6,0,0,0,0,0,0,-32328,0,0,0,2934,0,414948,0
415055,94,-382,-8298,-16,-37,43,328,0,-4,0,5168,183,4,26,144,0,6,0,0,0,0,0,0,-32328,0,0,0,2935,0,414953,0
415065,102,-364,-8306,-17,-37,41,328,7,0,-1,5160,183,-4,26,144,0,6,0,0,0,0,0,0,-32328,0,0,0,2934,0,414963,0
415075,86,-396,-8292,-15,-44,40,327,-1,-1,0,5160,181,-33,26,144,0,6,0,0,0,0,0,0,-32329,0,0,0,2934,0,414968,0
415085,102,-374,-8300,-12,-46,40,326,-1,-3,-2,5168,175,-66,26,144,0,6,0,0,0,0,0,0,-32329,0,0,0,2934,0,414978,0
415095,76,-358,-8304,-17,-37,39,329,0,4,0,5168,175,-76,26,144,0,6,0,0,0,0,0,0,-32329,0,0,0,2935,0,414983,0
415105,76,-370,-8308,-14,-33,41,327,-1,-5,3,5168,175,-110,26,144,0,6,0,0,0,0,0,0,-32329,0,0,0,2935,0,415017,0
415115,90,-362,-8304,-15,-35,41,329,3,3,-1,5168,178,-94,26,144,0,6,0,0,0,0,0,0,-32328,0,0,0,2935,0,415037,0
415125,98,-378,-8284,-16,-40,39,328,0,-1,0,5160,179,-95,26,144,0,6,0,0,0,0,0,0,-32328,0,0,0,2935,0,415053,0
415135,94,-350,-8294,-17,-35,40,328,-2,5,-1,5176,183,-57,26,144,0,6,0,0,0,0,0,0,-32329,0,0,0,2934,0,415055,0
415145,86,-380,-8326,-15,-39,43,327,-6,0,-2,5160,184,-45,26,144,0,6,0,0,0,0,0,0,-32328,0,0,0,2935,0,415067,0
415155,110,-374,-8298,-17,-34,38,328,6,-2,0,5168,182,-50,26,144,0,6,0,0,0,0,0,0,-32328,0,0,0,2935,0,415070,0
415165,86,-374,-8292,-16,-36,39,329,10,3,1,5168,179,-52,26,144,0,6,0,0,0,0,0,0,-32329,0,0,0,2936,0,415088,0
415175,82,-398,-8274,-10,-44,39,327,0,-1,0,5160,181,-29,26,144,0,6,0,0,0,0,0,0,-32328,0,0,0,2935,0,415091,0
415185,74,-376,-8294,-22,-42,42,327,1,-3,-2,5168,185,-26,26,144,0,6,0,0,0,0,0,0,-32329,0,0,0,2934,0,415099,0
415195,102,-362,-8306,-15,-47,41,328,5,1,1,5168,182,-32,26,144,0,6,0,0,0,0,0,0,-32329,0,0,0,2934,0,415107,0
415205,90,-364,-8298,-23,-43,39,328,1,-2,-1,5168,185,-48,26,144,0,6,0,0,0,0,0,0,-32329,0,0,0,2933,0,415119,0
415215,104,-382,-8306,-21,-45,36,328,1,-2,2,5160,184,-50,26,144,0,6,0,0,0,0,0,0,-32330,0,0,0,2935,0,415130,0
415225,76,-344,-8284,-20,-43,43,328,3,-6,0,5160,185,-47,26,144,0,6,0,0,0,0,0,0,-32329,0,0,0,2935,0,415142,0
415235,88,-380,-8298,-22,-40,37,327,0,1,2,5168,181,-51,26,144,0,6,0,0,0,0,0,0,-32329,0,0,0,2935,0,415157,0
415245,92,-388,-8308,-15,-43,41,327,-2,-3,-3,5168,176,-34,26,144,0,6,0,0,0,0,0,0,-32329,0,0,0,2935,0,415159,0
415255,72,-396,-8308,-19,-38,40,328,-4,-2,1,5160,182,-20,26,144,0,6,0,0,0,0,0,0,-32329,0,0,0,2935,0,415172,0
415265,106,-388,-8298,-17,-40,39,327,-5,0,-4,5168,185,15,26,144,0,6,0,0,0,0,0,0,-32329,0,0,0,2935,0,415189,0
415275,94,-390,-8284,-16,-31,36,327,-8,-2,-3,5160,183,0,26,144,0,6,0,0,0,0,0,0,-32328,0,0,0,2935,0,415194,0
415285,62,-398,-8304,-14,-28,37,328,-1,-1,1,5160,182,2,26,144,0,6,0,0,0,0,0,0,-32329,0,0,0,2935,0,415209,0
415295,74,-360,-8296,-15,-35,41,328,2,-1,1,5168,178,-13,26,144,0,6,0,0,0,0,0,0,-32329,0,0,0,2935,0,415212,0
415305,96,-378,-8282,-19,-44,38,328,3,-3,4,5160,177,-17,26,144,0,6,0,0,0,0,0,0,-32329,0,0,0,2935,0,415218,0
415315,98,-392,-8292,-16,-56,38,328,1,-1,2,5168,176,-44,26,144,0,6,0,0,0,0,0,0,-32330,0,0,0,2935,0,415226,0
415325,102,-370,-8306,-14,-54,39,328,-1,2,1,5160,178,-41,26,144,0,6,0,0,0,0,0,0,-32329,0,0,0,2935,0,415231,0
415335,102,-378,-8306,-18,-39,36,328,0,1,3,5168,180,-41,26,144,0,6,0,0,0,0,0,0,-32328,0,0,0,2935,0,415246,0
415345,118,-398,-8272,-13,-27,42,328,-4,-1,3,5168,180,-45,26,144,0,6,0,0,0,0,0,0,-32329,0,0,0,2935,0,415249,0
415355,110,-394,-8254,-13,-26,36,328,5,0,-3,5160,185,-44,26,144,0,6,0,0,0,0,0,0,-32329,0,0,0,2935,0,415257,0
415365,80,-332,-8298,-21,-39,43,328,-1,2,-2,5168,188,-5,26,144,0,6,0,0,0,0,0,0,-32328,0,0,0,2935,0,415276,0
415375,86,-422,-8240,-12,-35,40,327,-1,4,-2,5168,185,-36,26,144,0,6,0,0,0,0,0,0,-32328,0,0,0,2934,0,415278,0
415385,110,-388,-8326,-23,-36,39,328,1,-2,0,5168,181,-29,26,144,0,6,0,0,0,0,0,0,-32328,0,0,0,2935,0,415283,0
415395,66,-352,-8308,-20,-41,40,328,-5,0,-1,5160,181,-50,26,144,0,6,0,0,0,0,0,0,-32328,0,0,0,2935,0,415292,0
415405,104,-402,-8280,-16,-51,42,329,8,2,0,5168,181,-19,26,144,0,6,0,0,0,0,0,0,-32330,0,0,0,2934,0,415299,0
415415,108,-352,-8266,-19,-43,39,328,2,1,-4,5168,183,-5,26,144,0,6,0,0,0,0,0,0,-32328,0,0,0,2935,0,415307,0
415425,82,-372,-8310,-13,-29,33,328,6,-7,-2,5160,182,-28,26,144,0,6,0,0,0,0,0,0,-32328,0,0,0,2935,0,415323,0
415435,84,-368,-8296,-8,-32,43,327,0,-4,0,5168,184,-26,26,144,0,6,0,0,0,0,0,0,-32329,0,0,0,2935,0,415336,0
415445,82,-368,-8272,-19,-29,42,328,3,1,-1,5168,181,-17,26,144,0,6,0,0,0,0,0,0,-32329,0,0,0,2934,0,415339,0
415455,80,-366,-8326,-15,-30,38,329,0,4,-2,5168,181,-20,26,144,0,6,0,0,0,0,0,0,-32329,0,0,0,2934,0,415346,0
415465,86,-368,-8278,-10,-27,41,328,0,1,-2,5168,180,-25,26,144,0,6,0,0,0,0,0,0,-32329,0,0,0,2935,0,415383,0
415475,74,-384,-8272,-16,-25,42,328,1,0,-1,5168,185,-30,26,144,0,6,0,0,0,0,0,0,-32329,0,0,0,2935,0,415388,0
415485,128,-372,-8320,-18,-42,38,329,8,-4,-1,5168,186,-41,26,144,0,6,0,0,0,0,0,0,-32329,0,0,0,2933,0,415391,0
415495,94,-374,-8314,-16,-47,36,327,0,-2,-1,5168,182,-56,26,144,0,6,0,0,0,0,0,0,-32329,0,0,0,2934,0,415403,0
415505,110,-368,-8304,-18,-49,39,329,11,-2,2,5168,180,-68,26,144,0,6,0,0,0,0,0,0,-32330,0,0,0,2933,0,415419,0
415515,102,-384,-8300,-11,-30,37,329,11,-5,-4,5168,179,-84,26,144,0,6,0,0,0,0,0,0,-32330,0,0,0,2935,0,415421,0
415525,58,-362,-8302,-11,-3,43,328,0,1,-2,5168,182,-94,26,144,0,6,0,0,0,0,0,0,-32329,0,0,0,2934,0,415442,0
415535,88,-390,-8298,-7,3,37,328,4,0,-3,5168,179,-66,26,144,0,6,0,0,0,0,0,0,-32328,0,0,0,2935,0,415444,0
415545,96,-382,-8282,-11,-7,39,327,-4,0,-2,5168,177,-58,26,144,0,6,0,0,0,0,0,0,-32330,0,0,0,2936,0,415459,0
415555,88,-360,-8282,-15,-27,38,329,5,1,0,5168,176,-46,26,144,0,6,0,0,0,0,0,0,-32328,0,0,0,2933,0,415467,0
415565,96,-386,-8290,-13,-40,40,328,1,-1,-2,5176,181,-39,26,144,0,6,0,0,0,0,0,0,-32328,0,0,0,2935,0,415473,0
415575,100,-406,-8286,-7,-49,36,327,1,1,0,5168,182,-29,26,144,0,6,0,0,0,0,0,0,-32329,0,0,0,2934,0,415479,0
415585,110,-392,-8308,-12,-34,42,328,-1,1,-2,5168,185,3,26,144,0,6,0,0,0,0,0,0,-32329,0,0,0,2934,0,415489,0
415595,96,-370,-8274,-8,-33,42,328,0,1,2,5168,185,-27,26,144,0,6,0,0,0,0,0,0,-32329,0,0,0,2935,0,415494,0
415605,124,-372,-8326,-10,-30,37,328,-2,-6,4,5168,185,-46,26,144,0,6,0,0,0,0,0,0,-32329,0,0,0,2936,0,415503,0
415615,108,-390,-8320,-9,-47,37,329,2,-1,-1,5168,182,-74,26,144,0,6,0,0,0,0,0,0,-32329,0,0,0,2935,0,415508,0
415625,104,-426,-8280,-21,-58,34,328,5,1,0,5168,178,-117,26,144,0,6,0,0,0,0,0,0,-32329,0,0,0,2935,0,415542,0
415635,88,-378,-8294,-15,-62,42,327,0,8,3,5168,170,-133,26,144,0,6,0,0,0,0,0,0,-32330,0,0,0,2934,0,415555,0
415645,106,-386,-8318,-18,-54,42,328,2,-2,0,5176,178,-96,26,144,0,6,0,0,0,0,0,0,-32329,0,0,0,2934,0,415557,0
415655,86,-390,-8294,-19,-53,37,328,1,3,2,5168,183,-74,26,144,0,6,0,0,0,0,0,0,-32329,0,0,0,2935,0,415562,0
415665,96,-378,-8316,-17,-54,41,328,-1,-1,-2,5168,186,-67,26,144,0,6,0,0,0,0,0,0,-32329,0,0,0,2935,0,415579,0
415675,84,-378,-8298,-24,-55,42,328,4,0,-2,5168,181,-67,26,144,0,6,0,0,0,0,0,0,-32329,0,0,0,2934,0,415584,0
415685,72,-380,-8318,-24,-52,41,328,-1,-3,-5,5160,179,-51,26,144,0,6,0,0,0,0,0,0,-32329,0,0,0,2934,0,415595,0
415695,100,-388,-8304,-22,-56,46,328,0,-4,-3,5168,178,-50,26,144,0,6,0,0,0,0,0,0,-32329,0,0,0,2933,0,415600,0
415705,134,-382,-8282,-20,-61,36,329,3,2,2,5168,182,-40,26,144,0,6,0,0,0,0,0,0,-32328,0,0,0,2934,0,415610,0
415715,108,-400,-8282,-18,-62,40,329,6,2,1,5168,181,-44,26,144,0,6,0,0,0,0,0,0,-32328,0,0,0,2935,0,415615,0
415725,82,-390,-8310,-19,-43,37,328,0,3,-2,5168,182,-28,26,144,0,6,0,0,0,0,0,0,-32329,0,0,0,2934,0,415640,0
415735,100,-382,-8300,-11,-38,42,328,2,-2,3,5168,183,-5,26,144,0,6,0,0,0,0,0,0,-32328,0,0,0,2935,0,415654,0
415745,82,-358,-8274,-13,-45,39,327,-3,3,1,5168,182,-8,26,144,0,6,0,0,0,0,0,0,-32329,0,0,0,2935,0,415659,0
415755,84,-380,-8296,-17,-37,37,327,-3,1,1,5168,178,-8,26,144,0,6,0,0,0,0,0,0,-32329,0,0,0,2935,0,415661,0
415765,90,-378,-8308,-16,-38,40,328,-1,-1,-3,5168,179,-24,26,144,0,6,0,0,0,0,0,0,-32328,0,0,0,2935,0,415669,0
415775,102,-384,-8326,-15,-42,38,328,0,-1,2,5168,182,-15,26,144,0,6,0,0,0,0,0,0,-32329,0,0,0,2935,0,415673,0
415785,92,-376,-8284,-18,-43,40,327,-2,-1,2,5168,180,-47,26,144,0,6,0,0,0,0,0,0,-32329,0,0,0,2935,0,415682,0
415795,90,-358,-8288,-21,-40,44,328,-7,-2,0,5168,178,-91,26,144,0,6,0,0,0,0,0,0,-32329,0,0,0,2935,0,415685,0
415805,102,-396,-8288,-17,-32,40,328,1,-1,-1,5168,177,-93,26,144,0,6,0,0,0,0,0,0,-32327,0,0,0,2935,0,415696,0
415815,90,-370,-8286,-20,-30,38,327,-4,-2,-1,5160,180,-73,26,144,0,6,0,0,0,0,0,0,-32329,0,0,0,2935,0,415706,0
415825,88,-392,-8304,-9,-35,41,329,7,3,2,5168,185,-45,26,144,0,6,0,0,0,0,0,0,-32329,0,0,0,2935,0,415713,0
415835,66,-366,-8306,-16,-34,43,328,6,3,2,5160,183,-29,26,144,0,6,0,0,0,0,0,0,-32329,0,0,0,2935,0,415735,0
415845,96,-372,-8302,-13,-33,39,328,10,3,-4,5168,181,-65,26,144,0,6,0,0,0,0,0,0,-32329,0,0,0,2934,0,415738,0
415855,96,-370,-8298,-10,-27,40,328,2,4,1,5168,176,-65,26,144,0,6,0,0,0,0,0,0,-32327,0,0,0,2934,0,415750,0
415865,106,-378,-8306,-11,-24,40,327,-11,0,-1,5176,179,-55,26,144,0,6,0,0,0,0,0,0,-32329,0,0,0,2935,0,415757,0
415875,82,-382,-8292,-11,-26,35,328,4,-4,0,5168,184,-42,26,144,0,6,0,0,0,0,0,0,-32329,0,0,0,2935,0,415763,0
415885,88,-378,-8320,-14,-21,40,329,3,4,-2,5168,186,-37,26,144,0,6,0,0,0,0,0,0,-32329,0,0,0,2934,0,415773,0
415895,92,-360,-8278,-11,-28,38,327,-8,-3,-2,5168,184,-63,26,144,0,6,0,0,0,0,0,0,-32329,0,0,0,2935,0,415793,0
415905,116,-388,-8288,-16,-30,40,327,0,1,3,5168,176,-74,26,144,0,6,0,0,0,0,0,0,-32329,0,0,0,2935,0,415800,0
415915,110,-368,-8296,-14,-35,40,328,3,3,-2,5168,174,-103,26,144,0,6,0,0,0,0,0,0,-32329,0,0,0,2934,0,415803,0
415925,82,-350,-8288,-12,-37,42,327,0,3,-1,5168,177,-100,26,144,0,6,0,0,0,0,0,0,-32329,0,0,0,2934,0,415818,0
415935,100,-394,-8302,-16,-32,39,328,-1,3,0,5184,174,-101,26,144,0,6,0,0,0,0,0,0,-32327,0,0,0,2935,0,415827,0
415945,96,-346,-8276,-21,-43,36,328,1,0,0,5168,179,-69,26,144,0,6,0,0,0,0,0,0,-32329,0,0,0,2935,0,415863,0
415955,82,-374,-8292,-17,-46,42,329,3,1,0,5168,180,-66,26,144,0,6,0,0,0,0,0,0,-32328,0,0,0,2934,0,415870,0
415965,96,-376,-8282,-15,-40,41,327,-3,1,-2,5160,183,-83,26,144,0,6,0,0,0,0,0,0,-32328,0,0,0,2934,0,415906,0
415975,88,-374,-8290,-19,-35,40,328,0,1,2,5168,181,-80,26,144,0,6,0,0,0,0,0,0,-32329,0,0,0,2935,0,415916,0
415985,102,-362,-8294,-15,-27,39,327,-1,0,1,5168,180,-80,26,144,0,6,0,0,0,0,0,0,-32330,0,0,0,2934,0,415937,0
415995,66,-384,-8300,-14,-32,42,327,-3,-1,-4,5168,182,-82,26,144,0,6,0,0,0,0,0,0,-32329,0,0,0,2934,0,415939,0
416005,104,-366,-8286,-20,-45,41,328,1,0,0,5160,180,-53,26,144,0,6,0,0,0,0,0,0,-32329,0,0,0,2933,0,415953,0
416015,110,-368,-8282,-24,-61,40,328,1,3,-1,5168,182,-69,26,144,0,6,0,0,0,0,0,0,-32329,0,0,0,2935,0,415953,0
416025,98,-396,-8308,-22,-73,41,328,-1,-1,-1,5168,181,-51,26,144,0,6,0,0,0,0,0,0,-32328,0,0,0,2934,0,415953,0
416035,104,-414,-8296,-16,-77,34,329,3,1,0,5168,185,-72,26,144,0,6,0,0,0,0,0,0,-32329,0,0,0,2935,0,415954,0
416045,70,-366,-8268,-22,-54,43,328,-1,7,2,5152,186,-28,26,144,0,6,0,0,0,0,0,0,-32329,0,0,0,2935,0,415966,0
416055,110,-414,-8298,-17,-39,37,328,0,-3,5,5168,184,-14,26,144,0,6,0,0,0,0,0,0,-32329,0,0,0,2934,0,415968,0
416065,116,-360,-8306,-17,-28,44,327,-2,-1,-1,5168,184,-15,26,144,0,6,0,0,0,0,0,0,-32329,0,0,0,2934,0,415976,0
416075,108,-368,-8316,-15,-32,43,328,5,0,-1,5176,186,-13,26,144,0,6,0,0,0,0,0,0,-32328,0,0,0,2935,0,415981,0
416085,98,-380,-8300,-17,-46,41,328,6,0,-3,5168,184,-3,26,144,0,6,0,0,0,0,0,0,-32329,0,0,0,2935,0,415991,0
416095,90,-372,-8306,-15,-46,39,328,0,2,0,5168,184,-11,26,144,0,6,0,0,0,0,0,0,-32329,0,0,0,2935,0,415996,0
416105,102,-394,-8314,-16,-51,39,327,-7,-3,1,5168,180,-29,26,144,0,6,0,0,0,0,0,0,-32328,0,0,0,2935,0,416004,0
416115,82,-358,-8302,-12,-43,39,327,-4,-1,-1,5168,179,-42,26,144,0,6,0,0,0,0,0,0,-32330,0,0,0,2935,0,416013,0
416125,68,-370,-8302,-14,-32,41,329,6,5,2,5168,177,-35,26,144,0,6,0,0,0,0,0,0,-32330,0,0,0,2935,0,416018,0
416135,76,-376,-8302,-15,-36,40,329,7,1,1,5168,179,-61,26,144,0,6,0,0,0,0,0,0,-32329,0,0,0,2935,0,416028,0
416145,88,-370,-8286,-18,-41,43,328,0,3,0,5168,180,-84,26,144,0,6,0,0,0,0,0,0,-32330,0,0,0,2935,0,416050,0
416155,86,-372,-8306,-19,-45,43,327,-3,1,4,5168,181,-100,26,144,0,6,0,0,0,0,0,0,-32328,0,0,0,2935,0,416060,0
416165,92,-386,-8286,-15,-52,39,329,-4,5,-1,5176,179,-92,26,144,0,6,0,0,0,0,0,0,-32329,0,0,0,2933,0,416072,0
416175,96,-370,-8304,-20,-44,43,328,-1,-3,-1,5168,179,-71,26,144,0,6,0,0,0,0,0,0,-32328,0,0,0,2935,0,416080,0
416185,80,-378,-8314,-16,-32,39,328,-2,-1,-1,5168,184,-54,26,144,0,6,0,0,0,0,0,0,-32329,0,0,0,2935,0,416082,0
416195,84,-378,-8306,-13,-34,39,329,6,0,0,5168,184,-31,26,144,0,6,0,0,0,0,0,0,-32330,0,0,0,2936,0,416090,0
416205,100,-388,-8286,-17,-39,39,328,2,-2,1,5168,187,-11,26,144,0,6,0,0,0,0,0,0,-32329,0,0,0,2935,0,416093,0
416215,102,-378,-8296,-23,-44,42,327,-5,-4,-6,5168,185,-34,26,144,0,6,0,0,0,0,0,0,-32329,0,0,0,2935,0,416103,0
416225,62,-388,-8302,-16,-51,41,328,4,-1,-1,5168,185,-31,26,144,0,6,0,0,0,0,0,0,-32329,0,0,0,2935,0,416117,0
416235,80,-328,-8278,-19,-48,38,327,-3,-3,0,5168,180,-75,26,144,0,6,0,0,0,0,0,0,-32329,0,0,0,2935,0,416124,0
416245,78,-382,-8304,-15,-32,41,328,0,2,-3,5168,178,-50,26,144,0,6,0,0,0,0,0,0,-32329,0,0,0,2935,0,416134,0
416255,100,-390,-8290,-13,-33,41,329,3,2,3,5168,175,-59,26,144,0,6,0,0,0,0,0,0,-32328,0,0,0,2934,0,416149,0
416265,68,-388,-8294,-16,-42,41,327,2,1,-1,5168,179,-66,26,144,0,6,0,0,0,0,0,0,-32329,0,0,0,2935,0,416194,0
416275,74,-372,-8300,-19,-51,42,329,5,4,1,5168,175,-66,26,144,0,6,0,0,0,0,0,0,-32329,0,0,0,2935,0,416200,0
416285,106,-386,-8286,-18,-56,38,328,3,-1,2,5160,178,-58,26,144,0,6,0,0,0,0,0,0,-32329,0,0,0,2935,0,416207,0
416295,90,-384,-8314,-18,-51,45,327,-9,-2,0,5168,182,-36,26,144,0,6,0,0,0,0,0,0,-32329,0,0,0,2934,0,416210,0
416305,94,-338,-8316,-16,-39,42,327,-3,0,0,5168,183,-46,26,144,0,6,0,0,0,0,0,0,-32328,0,0,0,2935,0,416210,0
416315,98,-378,-8300,-14,-28,35,329,4,-3,-2,5176,184,-36,26,144,0,6,0,0,0,0,0,0,-32329,0,0,0,2934,0,416217,0
416325,84,-374,-8294,-15,-30,38,328,2,0,0,5168,179,-49,26,144,0,6,0,0,0,0,0,0,-32329,0,0,0,2934,0,416230,0
416335,90,-364,-8308,-13,-28,41,329,6,2,0,5168,182,-29,26,144,0,6,0,0,0,0,0,0,-32329,0,0,0,2935,0,416237,0
416345,80,-388,-8284,-18,-31,37,328,-2,-2,0,5168,176,-34,26,144,0,6,0,0,0,0,0,0,-32328,0,0,0,2935,0,416239,0
416355,92,-378,-8314,-20,-46,39,328,2,2,2,5168,179,-20,26,144,0,6,0,0,0,0,0,0,-32329,0,0,0,2935,0,416247,0
416365,86,-368,-8296,-18,-49,42,328,0,0,0,5176,180,-52,26,144,0,6,0,0,0,0,0,0,-32329,0,0,0,2935,0,416290,0
416375,104,-388,-8314,-19,-42,37,327,-1,2,-3,5168,185,-31,26,144,0,6,0,0,0,0,0,0,-32328,0,0,0,2935,0,416298,0
416385,88,-380,-8316,-18,-32,39,328,-3,-2,1,5168,180,-50,26,144,0,6,0,0,0,0,0,0,-32329,0,0,0,2935,0,416303,0
416395,92,-378,-8298,-15,-29,40,328,2,-2,0,5168,177,-23,26,144,0,6,0,0,0,0,0,0,-32329,0,0,0,2935,0,416312,0
416405,98,-370,-8288,-19,-46,41,328,4,-1,4,5168,177,-41,26,144,0,6,0,0,0,0,0,0,-32328,0,0,0,2935,0,416314,0
416415,86,-392,-8320,-24,-47,39,327,-2,1,-3,5168,182,-28,26,144,0,6,0,0,0,0,0,0,-32329,0,0,0,2935,0,416320,0
416425,104,-364,-8316,-20,-48,39,328,0,-3,-1,5160,182,-35,26,144,0,6,0,0,0,0,0,0,-32329,0,0,0,2935,0,416328,0
416435,78,-382,-8278,-10,-37,40,328,-4,0,1,5168,183,-49,26,144,0,6,0,0,0,0,0,0,-32328,0,0,0,2935,0,416330,0
416445,104,-364,-8300,-19,-22,40,327,0,0,-4,5168,181,-48,26,144,0,6,0,0,0,0,0,0,-32327,0,0,0,2935,0,416337,0
416455,82,-366,-8300,-13,-27,37,328,2,1,1,5168,181,-66,26,144,0,6,0,0,0,0,0,0,-32329,0,0,0,2935,0,416344,0
416465,80,-370,-8272,-16,-41,41,328,5,-1,0,5168,185,-40,26,144,0,6,0,0,0,0,0,0,-32330,0,0,0,2935,0,416359,0
416475,96,-380,-8276,-17,-45,41,328,-7,5,0,5168,183,-55,26,144,0,6,0,0,0,0,0,0,-32330,0,0,0,2935,0,416366,0
416485,98,-404,-8332,-19,-50,43,328,-4,0,-2,5168,178,-91,26,144,0,6,0,0,0,0,0,0,-32329,0,0,0,2935,0,416373,0
416495,84,-394,-8300,-14,-45,39,327,-2,-3,-2,5160,173,-87,26,144,0,6,0,0,0,0,0,0,-32329,0,0,0,2935,0,416386,0
416505,86,-350,-8300,-16,-31,42,327,1,-4,-1,5168,180,-69,26,144,0,6,0,0,0,0,0,0,-32328,0,0,0,2934,0,416393,0
416515,54,-412,-8324,-13,-30,40,327,-5,1,-5,5168,183,-48,26,144,0,6,0,0,0,0,0,0,-32330,0,0,0,2935,0,416404,0
416525,88,-366,-8294,-18,-31,41,327,-5,2,0,5168,185,-55,26,144,0,6,0,0,0,0,0,0,-32329,0,0,0,2934,0,416414,0
416535,88,-362,-8294,-15,-38,41,327,-5,-1,-1,5168,181,-78,26,144,0,6,0,0,0,0,0,0,-32329,0,0,0,2935,0,416434,0
416545,106,-378,-8302,-15,-49,40,327,-8,2,-1,5168,181,-79,26,144,0,6,0,0,0,0,0,0,-32329,0,0,0,2934,0,416446,0
416555,94,-376,-8300,-14,-40,41,328,-4,1,3,5168,178,-84,26,144,0,6,0,0,0,0,0,0,-32330,0,0,0,2935,0,416464,0
416565,118,-396,-8292,-20,-37,41,329,1,0,-1,5168,177,-79,26,144,0,6,0,0,0,0,0,0,-32329,0,0,0,2934,0,416469,0
416575,94,-356,-8296,-16,-38,46,328,1,-2,-5,5168,175,-75,26,144,0,6,0,0,0,0,0,0,-32327,0,0,0,2935,0,416477,0
416585,94,-380,-8288,-12,-38,39,328,1,2,0,5168,179,-44,26,144,0,6,0,0,0,0,0,0,-32327,0,0,0,2935,0,416479,0
416595,80,-382,-8296,-14,-41,40,328,0,-3,0,5168,181,-10,26,144,0,6,0,0,0,0,0,0,-32328,0,0,0,2934,0,416484,0
416605,60,-366,-8312,-15,-35,39,327,2,1,-2,5160,181,-16,26,144,0,6,0,0,0,0,0,0,-32327,0,0,0,2935,0,416494,0
416615,100,-382,-8310,-16,-32,38,328,-5,-2,0,5160,175,-36,26,144,0,6,0,0,0,0,0,0,-32330,0,0,0,2935,0,416528,0
416625,82,-366,-8286,-23,-30,40,328,7,0,2,5168,176,-58,26,144,0,6,0,0,0,0,0,0,-32329,0,0,0,2936,0,416538,0
416635,92,-360,-8286,-21,-41,39,327,-7,-4,0,5168,181,-59,26,144,0,6,0,0,0,0,0,0,-32328,0,0,0,2935,0,416546,0
416645,102,-408,-8302,-14,-46,38,327,0,7,-3,5168,178,-60,26,144,0,6,0,0,0,0,0,0,-32329,0,0,0,2935,0,416559,0
416655,100,-382,-8264,-15,-49,39,329,5,-3,3,5168,181,-65,26,144,0,6,0,0,0,0,0,0,-32330,0,0,0,2936,0,416569,0
416665,88,-394,-8316,-20,-40,40,328,-1,-4,-1,5160,179,-77,26,144,0,6,0,0,0,0,0,0,-32329,0,0,0,2935,0,416583,0
416675,98,-370,-8316,-20,-40,42,328,-2,-3,0,5160,184,-80,26,144,0,6,0,0,0,0,0,0,-32328,0,0,0,2935,0,416588,0
416685,90,-378,-8294,-18,-41,40,329,-2,-4,0,5168,182,-77,26,144,0,6,0,0,0,0,0,0,-32329,0,0,0,2935,0,416599,0
416695,80,-384,-8300,-16,-39,40,328,0,-4,0,5168,180,-47,26,144,0,6,0,0,0,0,0,0,-32328,0,0,0,2936,0,416607,0
416705,88,-398,-8288,-17,-40,39,326,-7,-3,2,5168,180,-67,26,144,0,6,0,0,0,0,0,0,-32330,0,0,0,2935,0,416612,0
416715,78,-398,-8310,-14,-39,43,327,-3,-4,-5,5168,179,-72,26,144,0,6,0,0,0,0,0,0,-32330,0,0,0,2935,0,416622,0
416725,100,-368,-8310,-20,-39,43,329,1,2,1,5168,177,-99,26,144,0,6,0,0,0,0,0,0,-32328,0,0,0,2935,0,416637,0
416735,88,-354,-8286,-14,-31,39,329,3,2,0,5160,176,-86,26,144,0,6,0,0,0,0,0,0,-32328,0,0,0,2934,0,416649,0
416745,80,-402,-8304,-17,-37,41,328,3,2,1,5168,178,-70,26,144,0,6,0,0,0,0,0,0,-32329,0,0,0,2935,0,416652,0
416755,86,-388,-8278,-17,-41,40,327,0,-1,-3,5168,184,-46,26,144,0,6,0,0,0,0,0,0,-32328,0,0,0,2935,0,416658,0
416765,112,-346,-8298,-10,-33,36,328,-1,0,-3,5168,184,-54,26,144,0,6,0,0,0,0,0,0,-32329,0,0,0,2934,0,416663,0
416775,94,-360,-8298,-12,-20,45,328,2,0,2,5168,181,-71,26,144,0,6,0,0,0,0,0,0,-32329,0,0,0,2935,0,416672,0
416785,90,-404,-8306,-16,-30,44,327,-8,-6,0,5168,177,-68,26,144,0,6,0,0,0,0,0,0,-32330,0,0,0,2935,0,416681,0
416795,96,-384,-8280,-15,-44,40,328,-1,-1,4,5168,174,-70,26,144,0,6,0,0,0,0,0,0,-32329,0,0,0,2935,0,416690,0
416805,92,-370,-8294,-19,-76,43,328,3,-1,0,5168,180,-79,26,144,0,6,0,0,0,0,0,0,-32328,0,0,0,2935,0,416695,0
416815,80,-366,-8324,-28,-68,43,328,3,3,0,5160,180,-55,26,144,0,6,0,0,0,0,0,0,-32328,0,0,0,2934,0,416703,0
416825,68,-364,-8308,-15,-37,38,328,8,3,0,5168,183,-24,26,144,0,6,0,0,0,0,0,0,-32329,0,0,0,2934,0,416717,0
416835,82,-376,-8318,-13,-18,41,327,-6,2,0,5168,180,-4,26,144,0,6,0,0,0,0,0,0,-32329,0,0,0,2935,0,416723,0
416845,92,-374,-8300,-18,-16,41,328,1,0,-1,5168,185,8,26,144,0,6,0,0,0,0,0,0,-32330,0,0,0,2935,0,416734,0
416855,104,-360,-8288,-18,-34,34,328,-1,4,1,5168,185,-55,26,144,0,6,0,0,0,0,0,0,-32329,0,0,0,2935,0,416754,0
416865,110,-366,-8302,-23,-62,38,328,-5,1,0,5152,184,-42,26,144,0,6,0,0,0,0,0,0,-32329,0,0,0,2935,0,416765,0
416875,76,-390,-8288,-17,-63,40,327,-1,-1,0,5176,184,-79,26,144,0,6,0,0,0,0,0,0,-32329,0,0,0,2935,0,416824,0
416885,60,-370,-8300,-16,-37,41,328,3,2,-3,5160,186,-48,26,144,0,6,0,0,0,0,0,0,-32328,0,0,0,2934,0,416829,0
416895,100,-388,-8292,-6,-16,42,328,-2,2,3,5168,184,-39,26,144,0,6,0,0,0,0,0,0,-32328,0,0,0,2935,0,416839,0
416905,72,-372,-8296,-8,3,36,327,-3,2,-1,5160,180,-49,26,144,0,6,0,0,0,0,0,0,-32329,0,0,0,2935,0,416844,0
416915,88,-348,-8300,-8,-6,37,327,-1,-4,-2,5160,180,-18,26,144,0,6,0,0,0,0,0,0,-32329,0,0,0,2935,0,416854,0
416925,84,-392,-8294,-12,-31,39,328,0,0,3,5168,182,-31,26,144,0,6,0,0,0,0,0,0,-32329,0,0,0,2933,0,416854,0
416935,92,-392,-8306,-12,-30,37,328,4,1,1,5168,188,-23,26,144,0,6,0,0,0,0,0,0,-32329,0,0,0,2934,0,416854,0
416945,90,-372,-8320,-20,-46,42,328,0,-1,0,5168,185,-39,26,144,0,6,0,0,0,0,0,0,-32329,0,0,0,2934,0,416859,0
416955,84,-360,-8266,-10,-45,43,328,-3,1,0,5168,181,-56,26,144,0,6,0,0,0,0,0,0,-32329,0,0,0,2935,0,416868,0
416965,60,-384,-8278,-17,-35,42,327,-1,-2,-3,5160,175,-86,26,144,0,6,0,0,0,0,0,0,-32329,0,0,0,2935,0,416873,0
416975,104,-406,-8280,-17,-28,43,327,-1,-1,-1,5168,177,-112,26,144,0,6,0,0,0,0,0,0,-32330,0,0,0,2935,0,416900,0
416985,112,-390,-8300,-14,-21,39,328,0,1,0,5168,176,-111,26,144,0,6,0,0,0,0,0,0,-32329,0,0,0,2935,0,416908,0
416995,82,-392,-8262,-13,-30,39,329,3,1,-2,5168,178,-120,26,144,0,6,0,0,0,0,0,0,-32329,0,0,0,2936,0,416926,0
417005,92,-374,-8286,-15,-52,37,328,1,0,-1,5168,177,-118,26,144,0,6,0,0,0,0,0,0,-32329,0,0,0,2933,0,416943,0
417015,104,-370,-8312,-20,-68,38,328,2,1,1,5160,179,-89,26,144,0,6,0,0,0,0,0,0,-32328,0,0,0,2935,0,416948,0
417025,92,-410,-8284,-21,-70,39,328,0,2,0,5168,180,-74,26,144,0,6,0,0,0,0,0,0,-32329,0,0,0,2934,0,416951,0
417035,104,-382,-8278,-24,-71,42,327,-4,1,-1,5160,182,-36,26,144,0,6,0,0,0,0,0,0,-32329,0,0,0,2933,0,416968,0
417045,100,-358,-8300,-25,-60,39,328,2,-1,2,5168,182,-36,26,144,0,6,0,0,0,0,0,0,-32329,0,0,0,2935,0,416968,0
417055,90,-398,-8292,-18,-48,38,328,0,0,1,5168,179,-29,26,144,0,6,0,0,0,0,0,0,-32329,0,0,0,2935,0,416968,0
417065,84,-346,-8294,-23,-44,40,328,-3,-3,-5,5160,179,-35,26,144,0,6,0,0,0,0,0,0,-32329,0,0,0,2934,0,416995,0
417075,88,-378,-8300,-19,-39,38,328,1,-1,-3,5168,180,-77,26,144,0,6,0,0,0,0,0,0,-32330,0,0,0,2935,0,416997,0
417085,80,-352,-8308,-16,-43,41,328,-2,1,7,5168,178,-68,26,144,0,6,0,0,0,0,0,0,-32329,0,0,0,2934,0,417002,0
417095,108,-384,-8278,-14,-42,41,329,1,3,1,5160,182,-46,26,144,0,6,0,0,0,0,0,0,-32329,0,0,0,2935,0,417005,0
417105,112,-372,-8300,-10,-41,43,328,-3,-1,2,5168,185,-28,26,144,0,6,0,0,0,0,0,0,-32328,0,0,0,2935,0,417005,0
417115,100,-356,-8282,-16,-38,43,327,-6,-7,-1,5168,189,4,26,144,0,6,0,0,0,0,0,0,-32328,0,0,0,2935,0,417009,0
417125,94,-376,-8278,-18,-44,39,329,10,4,0,5168,187,7,26,144,0,6,0,0,0,0,0,0,-32328,0,0,0,2935,0,417018,0
417135,106,-362,-8318,-16,-45,37,328,-4,2,6,5168,182,-1,26,144,0,6,0,0,0,0,0,0,-32330,0,0,0,2936,0,417025,0
417145,94,-376,-8298,-14,-43,43,327,0,-3,-5,5168,182,-28,26,144,0,6,0,0,0,0,0,0,-32328,0,0,0,2935,0,417034,0
417155,68,-378,-8288,-18,-38,36,327,0,-1,2,5168,182,-35,26,144,0,6,0,0,0,0,0,0,-32330,0,0,0,2935,0,417056,0
417165,106,-386,-8296,-12,-34,40,328,-2,0,0,5160,182,-64,26,144,0,6,0,0,0,0,0,0,-32329,0,0,0,2935,0,417061,0
417175,88,-386,-8304,-15,-37,40,329,2,3,0,5168,180,-74,26,144,0,6,0,0,0,0,0,0,-32329,0,0,0,2935,0,417071,0
417185,76,-400,-8302,-16,-43,40,327,-3,-5,-3,5160,181,-65,26,144,0,6,0,0,0,0,0,0,-32329,0,0,0,2934,0,417076,0
417195,88,-372,-8308,-16,-41,38,327,-5,1,1,5160,180,-32,26,144,0,6,0,0,0,0,0,0,-32329,0,0,0,2935,0,417084,0
417205,70,-374,-8302,-24,-42,35,328,0,-3,-1,5176,179,-5,26,144,0,6,0,0,0,0,0,0,-32330,0,0,0,2934,0,417100,0
417215,80,-352,-8294,-23,-40,42,328,2,1,-2,5168,179,-14,26,144,0,6,0,0,0,0,0,0,-32329,0,0,0,2936,0,417106,0
417225,84,-388,-8290,-15,-39,38,329,1,1,3,5168,179,-34,26,144,0,6,0,0,0,0,0,0,-32330,0,0,0,2935,0,417114,0
417235,108,-354,-8304,-18,-41,38,328,4,1,0,5168,178,-20,26,144,0,6,0,0,0,0,0,0,-32330,0,0,0,2933,0,417123,0
417245,78,-344,-8326,-14,-39,40,327,-8,6,0,5160,180,-54,26,144,0,6,0,0,0,0,0,0,-32330,0,0,0,2935,0,417143,0
417255,104,-384,-8294,-7,-39,40,328,1,0,0,5168,180,-37,26,144,0,6,0,0,0,0,0,0,-32328,0,0,0,2936,0,417153,0
417265,74,-372,-8306,-16,-36,43,327,-7,-2,-3,5160,179,-62,26,144,0,6,0,0,0,0,0,0,-32330,0,0,0,2935,0,417190,0
417275,86,-384,-8298,-14,-39,42,327,-1,3,0,5168,180,-69,26,144,0,6,0,0,0,0,0,0,-32330,0,0,0,2935,0,417221,0
417285,116,-384,-8288,-18,-43,44,328,-6,-2,-1,5168,178,-88,26,144,0,6,0,0,0,0,0,0,-32329,0,0,0,2934,0,417228,0
417295,84,-382,-8280,-17,-48,43,328,3,2,1,5160,179,-116,26,144,0,6,0,0,0,0,0,0,-32329,0,0,0,2935,0,417236,0
417305,80,-374,-8326,-20,-42,44,327,-4,0,0,5168,178,-100,26,144,0,6,0,0,0,0,0,0,-32328,0,0,0,2936,0,417236,0
417315,58,-376,-8288,-16,-38,43,328,-3,-2,2,5160,181,-65,26,144,0,6,0,0,0,0,0,0,-32328,0,0,0,2935,0,417236,0
417325,78,-394,-8294,-16,-33,39,328,-3,-1,-2,5168,186,-40,26,144,0,6,0,0,0,0,0,0,-32329,0,0,0,2935,0,417241,0
417335,86,-384,-8288,-21,-42,42,329,6,-1,-2,5176,183,-60,26,144,0,6,0,0,0,0,0,0,-32329,0,0,0,2933,0,417243,0
417345,110,-366,-8302,-21,-54,41,328,0,2,0,5152,184,-55,26,144,0,6,0,0,0,0,0,0,-32329,0,0,0,2935,0,417248,0
417355,72,-402,-8306,-20,-58,41,328,4,0,1,5168,178,-62,26,144,0,6,0,0,0,0,0,0,-32328,0,0,0,2935,0,417251,0
417365,68,-378,-8316,-19,-49,43,328,4,2,0,5160,179,-53,26,144,0,6,0,0,0,0,0,0,-32330,0,0,0,2934,0,417255,0
417375,80,-384,-8326,-20,-32,40,328,0,2,2,5168,179,-69,26,144,0,6,0,0,0,0,0,0,-32330,0,0,0,2935,0,417266,0
417385,94,-390,-8292,-16,-33,40,328,0,6,0,5168,176,-87,26,144,0,6,0,0,0,0,0,0,-32329,0,0,0,2933,0,417274,0
417395,124,-374,-8282,-18,-38,38,328,0,1,0,5160,177,-63,26,144,0,6,0,0,0,0,0,0,-32330,0,0,0,2934,0,417290,0
417405,90,-372,-8324,-18,-43,41,327,-1,4,2,5168,176,-61,26,144,0,6,0,0,0,0,0,0,-32329,0,0,0,2935,0,417295,0
417415,78,-388,-8306,-16,-45,38,328,-1,4,-1,5168,180,-56,26,144,0,6,0,0,0,0,0,0,-32329,0,0,0,2934,0,417303,0
417425,74,-380,-8296,-18,-39,39,328,-1,0,-3,5168,180,-49,26,144,0,6,0,0,0,0,0,0,-32330,0,0,0,2935,0,417323,0
417435,116,-356,-8288,-19,-37,38,329,0,-2,3,5160,178,-40,26,144,0,6,0,0,0,0,0,0,-32330,0,0,0,2935,0,417348,0
417445,84,-370,-8304,-19,-39,42,327,-3,1,-2,5160,179,-63,26,144,0,6,0,0,0,0,0,0,-32330,0,0,0,2934,0,417350,0
417455,104,-372,-8286,-12,-46,41,327,0,2,2,5168,178,-81,26,144,0,6,0,0,0,0,0,0,-32329,0,0,0,2933,0,417355,0
417465,74,-360,-8288,-15,-45,34,326,-1,-2,-1,5168,183,-81,26,144,0,6,0,0,0,0,0,0,-32329,0,0,0,2934,0,417360,0
417475,74,-396,-8296,-18,-41,41,328,-3,0,-2,5168,185,-52,26,144,0,6,0,0,0,0,0,0,-32329,0,0,0,2935,0,417365,0
417485,96,-406,-8310,-18,-40,42,328,3,-3,2,5168,188,-4,26,144,0,6,0,0,0,0,0,0,-32329,0,0,0,2935,0,417386,0
417495,70,-360,-8288,-17,-33,37,328,0,0,0,5160,181,-9,26,144,0,6,0,0,0,0,0,0,-32329,0,0,0,2935,0,417388,0
417505,84,-380,-8292,-18,-38,44,328,2,0,-1,5168,179,-21,26,144,0,6,0,0,0,0,0,0,-32329,0,0,0,2935,0,417394,0
417515,106,-402,-8306,-18,-50,41,328,-1,4,-3,5168,180,-65,26,144,0,6,0,0,0,0,0,0,-32329,0,0,0,2934,0,417407,0
417525,80,-354,-8306,-20,-47,43,327,-2,2,2,5160,179,-64,26,144,0,6,0,0,0,0,0,0,-32329,0,0,0,2935,0,417413,0
417535,74,-390,-8280,-20,-40,36,327,-4,0,3,5168,176,-54,26,144,0,6,0,0,0,0,0,0,-32329,0,0,0,2936,0,417426,0
417545,100,-408,-8302,-13,-37,38,328,3,2,0,5160,175,-75,26,144,0,6,0,0,0,0,0,0,-32329,0,0,0,2934,0,417459,0
417555,100,-346,-8308,-19,-39,37,329,9,-3,1,5168,175,-54,26,144,0,6,0,0,0,0,0,0,-32328,0,0,0,2934,0,417471,0
417565,84,-374,-8306,-15,-39,41,328,-3,-2,-2,5168,180,-57,26,144,0,6,0,0,0,0,0,0,-32329,0,0,0,2935,0,417479,0
417575,110,-362,-8298,-17,-48,41,328,4,3,0,5160,178,-45,26,144,0,6,0,0,0,0,0,0,-32329,0,0,0,2935,0,417481,0
417585,96,-382,-8282,-17,-44,41,327,-1,-2,-1,5168,181,-70,26,144,0,6,0,0,0,0,0,0,-32328,0,0,0,2935,0,417486,0
417595,114,-374,-8300,-16,-43,41,328,5,-1,0,5160,179,-63,26,144,0,6,0,0,0,0,0,0,-32329,0,0,0,2935,0,417491,0
417605,70,-408,-8316,-20,-35,42,328,0,-2,-1,5168,179,-75,26,144,0,6,0,0,0,0,0,0,-32329,0,0,0,2935,0,417496,0
417615,90,-374,-8310,-19,-35,38,328,2,3,0,5168,183,-54,26,144,0,6,0,0,0,0,0,0,-32329,0,0,0,2935,0,417516,0
417625,86,-386,-8312,-17,-43,42,327,-3,0,0,5160,183,-22,26,144,0,6,0,0,0,0,0,0,-32328,0,0,0,2934,0,417518,0
417635,74,-386,-8266,-19,-46,40,328,1,-1,-1,5168,180,-38,26,144,0,6,0,0,0,0,0,0,-32329,0,0,0,2935,0,417525,0
417645,84,-394,-8310,-15,-42,41,327,0,0,-1,5160,179,-33,26,144,0,6,0,0,0,0,0,0,-32329,0,0,0,2935,0,417536,0
417655,78,-368,-8278,-13,-45,45,328,-7,-2,-1,5168,180,-30,26,144,0,6,0,0,0,0,0,0,-32329,0,0,0,2935,0,417544,0
417665,76,-356,-8284,-19,-36,40,327,-6,3,0,5168,184,-12,26,144,0,6,0,0,0,0,0,0,-32330,0,0,0,2935,0,417556,0
417675,68,-378,-8334,-17,-42,41,328,-8,-7,2,5160,182,-15,26,144,0,6,0,0,0,0,0,0,-32329,0,0,0,2935,0,417563,0
417685,116,-368,-8306,-14,-41,41,328,0,-1,0,5168,180,-48,26,144,0,6,0,0,0,0,0,0,-32330,0,0,0,2935,0,417573,0
417695,66,-388,-8294,-16,-39,41,328,4,-1,-2,5160,180,-37,26,144,0,6,0,0,0,0,0,0,-32329,0,0,0,2935,0,417587,0
417705,82,-376,-8310,-16,-41,38,329,3,7,6,5168,179,-28,26,144,0,6,0,0,0,0,0,0,-32329,0,0,0,2935,0,417594,0
417715,68,-388,-8294,-19,-41,37,327,-7,-2,-3,5168,180,-33,26,144,0,6,0,0,0,0,0,0,-32329,0,0,0,2935,0,417617,0
417725,82,-378,-8290,-14,-40,42,328,-1,1,0,5152,179,-28,26,144,0,6,0,0,0,0,0,0,-32329,0,0,0,2935,0,417622,0
417735,80,-346,-8280,-18,-38,41,328,2,-2,0,5168,184,-38,26,144,0,6,0,0,0,0,0,0,-32328,0,0,0,2936,0,417627,0
417745,98,-370,-8304,-19,-45,38,328,2,1,0,5168,183,-44,26,144,0,6,0,0,0,0,0,0,-32329,0,0,0,2935,0,417636,0
417755,70,-384,-8316,-13,-44,39,329,1,1,-1,5160,185,-56,26,144,0,6,0,0,0,0,0,0,-32329,0,0,0,2935,0,417646,0
417765,90,-382,-8312,-16,-39,39,328,1,-1,0,5168,180,-47,26,144,0,6,0,0,0,0,0,0,-32329,0,0,0,2936,0,417670,0
417775,92,-388,-8300,-18,-39,40,328,6,-2,-1,5160,179,-39,26,144,0,6,0,0,0,0,0,0,-32328,0,0,0,2934,0,417676,0
417785,104,-370,-8300,-18,-36,38,327,-6,-2,0,5168,182,-21,26,144,0,6,0,0,0,0,0,0,-32328,0,0,0,2934,0,417678,0
417795,80,-370,-8318,-18,-40,44,328,-2,-5,0,5160,179,-18,26,144,0,6,0,0,0,0,0,0,-32329,0,0,0,2935,0,417686,0
417805,96,-352,-8292,-12,-44,40,328,6,-3,0,5168,180,-36,26,144,0,6,0,0,0,0,0,0,-32328,0,0,0,2935,0,417702,0
417815,98,-378,-8292,-21,-44,43,329,0,3,-3,5160,183,-47,26,144,0,6,0,0,0,0,0,0,-32329,0,0,0,2935,0,417720,0
417825,68,-372,-8296,-17,-41,39,327,-3,-1,2,5160,187,-42,26,144,0,6,0,0,0,0,0,0,-32329,0,0,0,2935,0,417722,0
417835,88,-382,-8296,-15,-42,37,328,0,3,0,5168,187,-51,26,144,0,6,0,0,0,0,0,0,-32329,0,0,0,2934,0,417727,0
417845,92,-384,-8292,-19,-38,38,328,9,0,-4,5168,182,-38,26,144,0,6,0,0,0,0,0,0,-32328,0,0,0,2935,0,417733,0
417855,64,-356,-8316,-15,-40,36,328,0,4,0,5168,182,-49,26,144,0,6,0,0,0,0,0,0,-32330,0,0,0,2935,0,417743,0
417865,86,-362,-8312,-16,-48,40,328,3,4,-1,5168,180,-39,26,144,0,6,0,0,0,0,0,0,-32330,0,0,0,2935,0,417754,0
417875,122,-348,-8302,-18,-50,45,328,-7,2,0,5160,180,-39,26,144,0,6,0,0,0,0,0,0,-32328,0,0,0,2935,0,417763,0
417885,82,-350,-8288,-13,-40,37,326,0,-8,3,5160,180,-39,26,144,0,6,0,0,0,0,0,0,-32330,0,0,0,2935,0,417773,0
417895,84,-372,-8306,-17,-38,38,327,-2,1,0,5168,180,-39,26,144,0,6,0,0,0,0,0,0,-32330,0,0,0,2935,0,417786,0
417905,92,-392,-8310,-18,-44,40,327,0,1,1,5160,181,-7,26,144,0,6,0,0,0,0,0,0,-32328,0,0,0,2935,0,417794,0
417915,70,-360,-8314,-22,-42,40,328,1,-3,-1,5168,184,2,26,144,0,6,0,0,0,0,0,0,-32330,0,0,0,2934,0,417804,0
417925,72,-368,-8308,-17,-47,40,328,-1,-2,1,5160,183,33,26,144,0,6,0,0,0,0,0,0,-32330,0,0,0,2935,0,417817,0
417935,96,-384,-8290,-14,-45,37,327,-4,-2,2,5168,185,42,26,144,0,6,0,0,0,0,0,0,-32328,0,0,0,2935,0,417837,0
417945,108,-396,-8302,-15,-35,43,328,2,0,-1,5168,186,76,26,144,0,6,0,0,0,0,0,0,-32329,0,0,0,2934,0,417849,0
417955,94,-346,-8288,-11,-37,40,328,0,2,0,5160,187,74,26,144,0,6,0,0,0,0,0,0,-32329,0,0,0,2935,0,417852,0
417965,-18,-368,-8282,-18,-36,31,326,-4,-4,0,5168,188,92,26,144,0,6,0,0,0,0,0,0,-32328,0,0,0,2935,0,417857,0
417975,66,-378,-8304,-17,-48,38,328,-3,0,4,5160,190,84,26,144,0,6,0,0,0,0,0,0,-32328,0,0,0,2936,0,417865,0
417985,84,-390,-8278,-17,-63,38,328,0,-4,-1,5176,189,103,26,144,0,6,0,0,0,0,0,0,-32329,0,0,0,2935,0,417874,0
417995,136,-362,-8334,-12,-69,37,326,-7,-3,-1,5168,187,78,26,144,0,6,0,0,0,0,0,0,-32330,0,0,0,2933,0,417885,0
418005,108,-360,-8314,-13,-44,36,327,4,-1,-2,5152,185,103,26,144,0,6,0,0,0,0,0,0,-32328,0,0,0,2934,0,417894,0
418015,106,-386,-8316,-16,-36,34,329,5,4,-4,5168,187,52,26,144,0,6,0,0,0,0,0,0,-32330,0,0,0,2935,0,417906,0
418025,84,-366,-8318,-17,-37,30,328,-1,3,2,5160,188,41,26,144,0,6,0,0,0,0,0,0,-32329,0,0,0,2935,0,417913,0
418035,90,-398,-8296,-19,-39,34,328,3,-5,2,5176,186,19,26,144,0,6,0,0,0,0,0,0,-32329,0,0,0,2935,0,417926,0
418045,82,-358,-8300,-14,-57,34,328,-3,-1,1,5160,188,44,26,144,0,6,0,0,0,0,0,0,-32328,0,0,0,2936,0,417937,0
418055,82,-394,-8310,-19,-51,39,329,-5,1,3,5160,184,45,26,144,0,6,0,0,0,0,0,0,-32328,0,0,0,2935,0,417943,0
418065,78,-402,-8302,-19,-34,33,328,4,-1,-3,5168,187,69,26,144,0,6,0,0,0,0,0,0,-32329,0,0,0,2935,0,417958,0
418075,80,-354,-8298,-11,-23,38,328,-3,1,1,5160,188,60,26,144,0,6,0,0,0,0,0,0,-32329,0,0,0,2935,0,417967,0
418085,86,-358,-8288,-19,-35,40,328,-1,-2,1,5168,189,79,26,144,0,6,0,0,0,0,0,0,-32329,0,0,0,2935,0,417982,0
418095,102,-370,-8298,-15,-52,35,328,-1,-3,2,5160,185,74,26,144,0,6,0,0,0,0,0,0,-32329,0,0,0,2935,0,417990,0
418105,92,-408,-8298,-13,-63,35,327,-3,-2,4,5152,182,62,26,144,0,6,0,0,0,0,0,0,-32329,0,0,0,2935,0,417996,0
418115,82,-382,-8280,-21,-44,43,327,-4,-4,-1,5160,181,52,26,144,0,6,0,0,0,0,0,0,-32329,0,0,0,2935,0,418006,0
418125,88,-374,-8308,-14,-26,39,327,-2,-1,2,5168,188,62,26,144,0,6,0,0,0,0,0,0,-32329,0,0,0,2935,0,418022,0
418135,100,-384,-8310,-9,-20,39,328,4,1,0,5168,190,73,26,144,0,6,0,0,0,0,0,0,-32329,0,0,0,2935,0,418033,0
418145,46,-374,-8336,-12,-28,39,328,4,1,-4,5168,186,84,26,144,0,6,0,0,0,0,0,0,-32329,0,0,0,2936,0,418040,0
418155,88,-378,-8296,-11,-32,40,327,-1,0,0,5168,183,84,26,144,0,6,0,0,0,0,0,0,-32329,0,0,0,2935,0,418044,0
418165,94,-400,-8290,-16,-36,41,328,1,0,-5,5168,187,83,26,144,0,6,0,0,0,0,0,0,-32329,0,0,0,2935,0,418055,0
418175,68,-396,-8312,-10,-25,37,328,-4,0,-2,5160,189,106,26,144,0,6,0,0,0,0,0,0,-32329,0,0,0,2934,0,418066,0
418185,50,-418,-8338,16,46,34,328,0,-2,-2,5168,188,81,26,144,0,6,0,0,0,0,0,0,-32328,0,0,0,2935,0,418096,0
418195,86,-370,-8342,24,128,29,327,-2,-3,0,5168,184,39,26,144,0,6,0,0,0,0,0,0,-32329,0,0,0,2934,0,418117,0
418205,124,-306,-8404,46,193,40,327,-7,0,0,5168,182,21,26,144,0,6,0,0,0,0,0,0,-32329,0,0,0,2935,0,418124,0
418215,160,-348,-8284,92,209,40,328,2,-1,-4,5160,182,26,26,144,0,6,0,0,0,0,0,0,-32329,0,0,0,2935,0,418127,0
418225,114,-456,-7906,68,304,15,327,-8,0,1,5168,185,36,26,144,0,6,0,0,0,0,0,0,-32329,0,0,0,2935,0,418136,0
418235,90,-544,-8222,-86,263,-33,328,7,0,-2,5168,185,39,26,144,0,6,0,0,0,0,0,0,-32329,0,0,0,2935,0,418140,0
418245,166,-430,-7608,-6,207,-73,328,-2,-2,-1,5168,187,70,26,144,0,6,0,0,0,0,0,0,-32328,0,0,0,2935,0,418146,0
418255,94,-410,-8480,-41,-72,-76,328,7,7,0,5160,187,100,26,144,0,6,0,0,0,0,0,0,-32329,0,0,0,2935,0,418153,0
418265,254,-412,-8080,-53,-347,-61,327,3,1,0,5168,186,91,26,144,0,6,0,0,0,0,0,0,-32329,0,0,0,2935,0,418165,0
418275,70,-292,-8458,20,-447,-85,328,1,4,2,5168,185,70,26,144,0,6,0,0,0,0,0,0,-32329,0,0,0,2934,0,418171,0
418285,14,-438,-8152,-38,-297,-160,328,-5,-2,0,5160,183,12,26,144,0,6,0,0,0,0,0,0,-32328,0,0,0,2935,0,418176,0
418295,-22,-380,-8522,-12,-76,-192,328,0,2,2,5168,177,15,26,144,0,6,0,0,0,0,0,0,-32329,0,0,0,2935,0,418186,0
418305,104,-430,-8280,-18,47,-186,328,1,3,1,5168,182,43,26,144,0,6,0,0,0,0,0,0,-32329,0,0,0,2935,0,418193,0
418315,60,-420,-8416,-6,88,-179,328,3,7,-5,5168,185,38,26,144,0,6,0,0,0,0,0,0,-32329,0,0,0,2934,0,418203,0
418325,142,-382,-8244,-30,20,-168,328,-1,0,-3,5168,190,47,26,144,0,6,0,0,0,0,0,0,-32329,0,0,0,2935,0,418213,0
418335,226,-376,-8334,-22,-52,-137,328,-5,0,0,5168,191,41,26,144,0,6,0,0,0,0,0,0,-32330,0,0,0,2935,0,418223,0
418345,280,-370,-8258,-12,-117,-70,328,-3,-1,0,5168,190,59,26,144,0,6,0,0,0,0,0,0,-32330,0,0,0,2936,0,418234,0
418355,292,-392,-8318,-23,-114,-15,327,-1,1,2,5168,189,52,26,144,0,6,0,0,0,0,0,0,-32329,0,0,0,2935,0,418244,0
418365,216,-366,-8324,-9,-38,50,328,0,1,-2,5168,187,51,26,144,0,6,0,0,0,0,0,0,-32329,0,0,0,2935,0,418259,0
418375,112,-390,-8290,-24,29,59,327,-1,0,0,5168,188,49,26,144,0,6,0,0,0,0,0,0,-32329,0,0,0,2935,0,418266,0
418385,90,-380,-8320,-16,90,59,327,0,0,-3,5168,187,55,26,144,0,6,0,0,0,0,0,0,-32329,0,0,0,2934,0,418273,0
418395,114,-264,-8254,-16,74,82,329,3,5,-2,5168,188,58,26,144,0,6,0,0,0,0,0,0,-32330,0,0,0,2935,0,418283,0
418405,110,-288,-8294,-18,-3,111,328,4,0,3,5160,187,55,26,144,0,6,0,0,0,0,0,0,-32330,0,0,0,2935,0,418299,0
418415,92,-370,-8282,-21,-61,89,328,-1,-3,-3,5168,188,33,26,144,0,6,0,0,0,0,0,0,-32329,0,0,0,2934,0,418306,0
418425,92,-392,-8314,-18,-132,17,327,-9,4,4,5168,188,36,26,144,0,6,0,0,0,0,0,0,-32328,0,0,0,2935,0,418313,0
418435,106,-288,-8288,-4,-138,-36,328,1,0,2,5160,185,32,26,144,0,6,0,0,0,0,0,0,-32330,0,0,0,2935,0,418323,0
418445,108,-256,-8292,-15,-112,-125,328,6,-5,-3,5168,185,47,26,144,0,6,0,0,0,0,0,0,-32330,0,0,0,2935,0,418343,0
418455,100,-256,-8282,-14,-58,-185,327,-3,-6,-4,5176,184,36,26,144,0,6,0,0,0,0,0,0,-32329,0,0,0,2935,0,418347,0
418465,144,-292,-8278,-18,46,-237,328,4,5,-5,5176,186,51,26,144,0,6,0,0,0,0,0,0,-32329,0,0,0,2935,0,418354,0
418475,222,-418,-8338,-19,112,-254,327,-3,-5,0,5168,189,66,25,144,0,6,0,0,0,0,0,0,-32330,0,0,0,2935,0,418364,0
418485,464,-656,-8218,-25,136,-160,328,-2,0,0,5160,188,51,26,144,0,6,0,0,0,0,0,0,-32330,0,0,0,2935,0,418379,0
418495,550,-616,-8320,-41,115,-3,326,-1,3,2,5168,191,62,26,144,0,6,0,0,0,0,0,0,-32329,0,0,0,2935,0,418386,0
418505,1070,-232,-8202,-43,108,267,327,-1,-3,0,5168,190,32,26,144,0,6,0,0,0,0,0,0,-32329,0,0,0,2935,0,418393,0
418515,1750,14,-8090,-87,121,503,326,-9,-3,-4,5176,189,62,26,144,0,6,0,0,0,0,0,0,-32330,0,0,0,2935,0,418403,0
418525,2494,290,-7332,-476,-279,1176,328,4,-3,0,5168,188,68,26,144,0,6,0,0,0,0,0,0,-32330,0,0,0,2936,0,418420,0
418535,2958,118,-9144,-441,-161,1361,328,0,4,-2,5160,188,70,26,144,0,6,0,0,0,0,0,0,-32328,0,0,0,2937,0,418426,0
418545,484,-618,-8694,101,192,1109,327,-7,1,0,5168,188,59,26,144,0,6,0,0,0,0,0,0,-32329,0,0,0,2936,0,418434,0
418555,690,-930,-8174,96,323,1033,329,3,-3,0,5168,190,54,26,144,0,6,0,0,0,0,0,0,-32330,0,0,0,2937,0,418483,0
418565,-5596,-1240,-7372,-21,-379,555,329,7,4,-2,5168,191,66,26,144,0,6,0,0,0,0,0,0,-32328,0,0,0,2937,0,418497,0
418575,-4850,-1466,-6688,-639,-2142,61,326,-1,-2,-1,5168,193,61,26,144,0,6,0,0,0,0,0,0,-32329,0,0,0,2936,0,418499,0
418585,276,-944,-9212,-361,-1192,311,328,-1,-2,-2,5168,193,60,26,144,0,6,0,0,0,0,0,0,-32328,0,0,0,2937,0,418504,0
418595,-1008,-352,-7468,70,493,325,329,7,5,-2,5168,190,71,26,144,0,6,0,0,0,0,0,0,-32330,0,0,0,2936,0,418510,0
418605,-714,-572,-8502,28,357,83,328,4,-1,3,5168,189,69,26,144,0,6,0,0,0,0,0,0,-32330,0,0,0,2937,0,418510,0
418615,140,-580,-8348,-5,-375,84,328,9,0,2,5184,189,76,26,144,0,6,0,0,0,0,0,0,-32329,0,0,0,2936,0,418519,0
418625,120,-444,-8216,39,205,-10,328,-2,-3,-3,5168,186,63,26,144,0,6,0,0,0,0,0,0,-32328,0,0,0,2936,0,418521,0
418635,86,-526,-8318,48,229,-26,327,-6,1,5,5168,185,67,26,144,0,6,0,0,0,0,0,0,-32328,0,0,0,2935,0,418526,0
418645,288,-608,-8288,23,-2,-34,327,-3,1,1,5168,185,75,26,144,0,6,0,0,0,0,0,0,-32328,0,0,0,2936,0,418533,0
418655,284,-390,-8330,9,25,-12,327,1,2,2,5160,183,53,25,144,0,6,0,0,0,0,0,0,-32329,0,0,0,2935,0,418550,0
418665,38,228,-8246,-7,67,24,328,3,-1,2,5168,186,61,26,144,0,6,0,0,0,0,0,0,-32328,0,0,0,2936,0,418557,0
418675,24,386,-8318,-18,31,40,328,-1,-4,1,5168,185,48,26,144,0,6,0,0,0,0,0,0,-32328,0,0,0,2935,0,418563,0
418685,20,-416,-8354,-36,-64,47,327,5,-1,3,5168,187,82,26,144,0,6,0,0,0,0,0,0,-32329,0,0,0,2936,0,418576,0
418695,22,-344,-8396,-24,-58,45,329,3,-1,2,5168,185,72,26,144,0,6,0,0,0,0,0,0,-32329,0,0,0,2936,0,418584,0
418705,-36,-330,-8304,6,83,33,327,-5,-5,3,5168,188,65,25,144,0,6,0,0,0,0,0,0,-32329,0,0,0,2935,0,418596,0
418715,30,-330,-8302,29,221,32,328,1,4,-1,5168,188,42,26,144,0,6,0,0,0,0,0,0,-32329,0,0,0,2935,0,418603,0
418725,70,-362,-8342,20,221,31,328,1,2,0,5168,188,30,26,144,0,6,0,0,0,0,0,0,-32329,0,0,0,2935,0,418617,0
418735,86,-346,-8298,12,117,26,328,1,0,-1,5168,186,45,26,144,0,6,0,0,0,0,0,0,-32329,0,0,0,2935,0,418623,0
418745,64,-332,-8330,14,66,18,328,8,0,-2,5168,185,65,26,144,0,6,0,0,0,0,0,0,-32329,0,0,0,2935,0,418633,0
418755,30,-388,-8340,14,104,20,328,3,3,4,5168,188,87,26,144,0,6,0,0,0,0,0,0,-32329,0,0,0,2935,0,418644,0
418765,-2,-424,-8286,4,31,28,328,7,-2,0,5168,190,94,26,144,0,6,0,0,0,0,0,0,-32329,0,0,0,2933,0,418656,0
418775,76,-376,-8272,-3,-28,33,327,-3,0,1,5168,192,79,26,144,0,6,0,0,0,0,0,0,-32329,0,0,0,2933,0,418671,0
418785,238,-314,-8216,-33,-54,22,326,-7,-10,0,5160,187,64,26,144,0,6,0,0,0,0,0,0,-32328,0,0,0,2933,0,418676,0
418795,102,-342,-8278,-43,-64,29,327,-9,-3,3,5168,185,63,26,144,0,6,0,0,0,0,0,0,-32329,0,0,0,2933,0,418686,0
418805,2,-374,-8274,-43,-137,67,328,6,-3,0,5168,184,53,26,144,0,6,0,0,0,0,0,0,-32329,0,0,0,2934,0,418696,0
418815,-94,-290,-8270,-45,-217,94,326,-8,1,-1,5160,185,78,26,144,0,6,0,0,0,0,0,0,-32329,0,0,0,2932,0,418721,0
418825,-90,-250,-8362,-46,-325,133,327,-4,1,-3,5168,184,65,26,144,0,6,0,0,0,0,0,0,-32329,0,0,0,2933,0,418746,0
418835,-44,-210,-8352,-40,-271,136,328,0,2,0,5168,187,60,26,144,0,6,0,0,0,0,0,0,-32329,0,0,0,2933,0,418762,0
418845,152,-320,-8286,-27,-120,123,328,0,4,-2,5168,185,29,26,144,0,6,0,0,0,0,0,0,-32329,0,0,0,2933,0,418768,0
418855,284,-326,-8306,-29,-65,88,327,0,-3,1,5168,188,42,26,144,0,6,0,0,0,0,0,0,-32329,0,0,0,2933,0,418772,0
418865,410,-546,-8212,-50,-124,21,326,-2,1,-1,5160,188,40,26,144,0,6,0,0,0,0,0,0,-32328,0,0,0,2933,0,418780,0
418875,152,-354,-8276,-100,-336,13,329,6,6,1,5160,188,33,26,144,0,6,0,0,0,0,0,0,-32329,0,0,0,2933,0,418785,0
418885,442,-244,-8406,-131,-503,-3,327,-3,-1,0,5168,187,39,26,144,0,6,0,0,0,0,0,0,-32329,0,0,0,2933,0,418788,0
418895,422,-452,-8320,-82,-240,-49,327,2,-6,0,5168,189,61,26,144,0,6,0,0,0,0,0,0,-32329,0,0,0,2934,0,418793,0
418905,-282,-464,-8382,-11,-17,-59,327,-3,3,0,5160,189,78,26,144,0,6,0,0,0,0,0,0,-32329,0,0,0,2933,0,418795,0
418915,-478,-238,-8368,-15,-102,-10,328,2,-5,0,5168,186,79,26,144,0,6,0,0,0,0,0,0,-32328,0,0,0,2934,0,418806,0
418925,-104,-332,-8346,-5,-108,29,328,1,0,2,5168,186,49,26,144,0,6,0,0,0,0,0,0,-32329,0,0,0,2933,0,418814,0
418935,-136,-348,-8254,9,-9,19,327,0,0,0,5168,192,65,26,144,0,6,0,0,0,0,0,0,-32329,0,0,0,2934,0,418826,0
418945,-42,-290,-8292,14,49,-9,329,3,2,0,5168,195,65,26,144,0,6,0,0,0,0,0,0,-32329,0,0,0,2933,0,418833,0
418955,28,-334,-8324,11,36,-1,328,0,-3,0,5168,191,57,26,144,0,6,0,0,0,0,0,0,-32330,0,0,0,2933,0,418845,0
418965,-12,-322,-8346,36,31,2,327,-4,-1,-1,5168,185,45,26,144,0,6,0,0,0,0,0,0,-32328,0,0,0,2933,0,418853,0
418975,-96,-312,-8356,48,55,-35,327,-5,-4,0,5168,188,49,26,144,0,6,0,0,0,0,0,0,-32329,0,0,0,2933,0,418868,0
418985,-26,-320,-8314,61,181,-96,328,0,2,3,5168,191,74,26,144,0,6,0,0,0,0,0,0,-32329,0,0,0,2933,0,418874,0
418995,-14,-328,-8404,98,275,-112,328,-1,1,0,5168,190,69,26,144,0,6,0,0,0,0,0,0,-32329,0,0,0,2933,0,418885,0
419005,12,-328,-8414,157,369,-116,327,1,-2,2,5168,189,65,26,144,0,6,0,0,0,0,0,0,-32328,0,0,0,2934,0,418895,0
419015,72,-366,-8312,175,379,-110,328,4,1,2,5168,192,49,26,144,0,6,0,0,0,0,0,0,-32328,0,0,0,2934,0,418920,0
419025,152,-382,-8212,128,286,-74,327,-7,-3,-1,5168,191,62,26,144,0,6,0,0,0,0,0,0,-32329,0,0,0,2933,0,418924,0
419035,264,-370,-8156,77,146,-40,328,2,-6,0,5168,188,56,26,144,0,6,0,0,0,0,0,0,-32329,0,0,0,2933,0,418930,0
419045,334,-368,-8180,6,-104,26,327,1,-2,-2,5168,187,52,26,144,0,6,0,0,0,0,0,0,-32328,0,0,0,2933,0,418937,0
419055,208,-354,-8280,-18,-243,56,328,0,4,2,5168,189,38,26,144,0,6,0,0,0,0,0,0,-32329,0,0,0,2933,0,418943,0
419065,100,-374,-8336,-27,-274,41,328,6,3,-1,5160,189,61,26,144,0,6,0,0,0,0,0,0,-32330,0,0,0,2933,0,418954,0
419075,62,-364,-8336,-22,-184,35,327,-3,0,0,5168,189,83,26,144,0,6,0,0,0,0,0,0,-32328,0,0,0,2933,0,418968,0
419085,2,-362,-8326,-6,8,33,327,-2,-2,0,5168,186,93,26,144,0,6,0,0,0,0,0,0,-32329,0,0,0,2934,0,418979,0
419095,6,-356,-8322,3,91,26,327,0,-2,1,5176,185,87,26,144,0,6,0,0,0,0,0,0,-32329,0,0,0,2933,0,418989,0
419105,68,-398,-8284,1,78,23,326,-7,-4,0,5168,185,80,26,144,0,6,0,0,0,0,0,0,-32328,0,0,0,2933,0,418994,0
419115,78,-388,-8270,-2,19,14,328,-1,0,-2,5168,187,74,26,144,0,6,0,0,0,0,0,0,-32330,0,0,0,2933,0,419004,0
419125,102,-368,-8288,-16,-77,23,328,0,-1,0,5168,188,49,26,144,0,6,0,0,0,0,0,0,-32330,0,0,0,2933,0,419017,0
419135,116,-344,-8258,-25,-107,27,328,0,4,-1,5160,189,54,26,144,0,6,0,0,0,0,0,0,-32329,0,0,0,2933,0,419023,0
419145,118,-372,-8294,-33,-116,26,328,2,2,-3,5168,187,61,26,144,0,6,0,0,0,0,0,0,-32330,0,0,0,2934,0,419033,0
419155,98,-388,-8310,-30,-83,32,327,-2,-4,5,5168,189,52,26,144,0,6,0,0,0,0,0,0,-32330,0,0,0,2933,0,419043,0
419165,82,-400,-8294,-16,-54,29,328,9,-1,-1,5168,188,53,26,144,0,6,0,0,0,0,0,0,-32330,0,0,0,2933,0,419054,0
419175,76,-346,-8352,-6,-18,31,329,5,11,-3,5176,189,30,26,144,0,6,0,0,0,0,0,0,-32328,0,0,0,2933,0,419086,0
419185,46,-362,-8288,3,28,14,328,1,4,-1,5168,188,42,26,144,0,6,0,0,0,0,0,0,-32329,0,0,0,2934,0,419089,0
419195,54,-354,-8282,-6,29,-3,329,3,0,-3,5168,188,49,26,144,0,6,0,0,0,0,0,0,-32330,0,0,0,2933,0,419091,0
419205,82,-372,-8280,-13,-17,-15,329,3,1,0,5168,189,58,26,144,0,6,0,0,0,0,0,0,-32329,0,0,0,2933,0,419099,0
419215,78,-398,-8302,-15,-47,-17,327,3,4,-1,5160,185,40,26,144,0,6,0,0,0,0,0,0,-32328,0,0,0,2933,0,419107,0
419225,120,-360,-8286,-16,-76,-3,327,-1,0,1,5168,187,22,26,144,0,6,0,0,0,0,0,0,-32329,0,0,0,2933,0,419113,0
419235,76,-366,-8290,-18,-82,4,328,5,5,1,5168,188,54,26,144,0,6,0,0,0,0,0,0,-32329,0,0,0,2934,0,419126,0
419245,90,-376,-8300,-23,-51,12,327,-4,3,0,5168,191,68,26,144,0,6,0,0,0,0,0,0,-32329,0,0,0,2933,0,419139,0
419255,84,-372,-8316,-18,-19,11,328,2,-2,0,5168,188,66,26,144,0,6,0,0,0,0,0,0,-32329,0,0,0,2933,0,419155,0
419265,108,-386,-8300,-12,-16,27,328,0,0,-1,5160,188,52,26,144,0,6,0,0,0,0,0,0,-32329,0,0,0,2934,0,419172,0
419275,110,-390,-8294,-13,-23,29,327,0,3,-1,5168,190,63,26,144,0,6,0,0,0,0,0,0,-32328,0,0,0,2933,0,419188,0
419285,122,-368,-8300,-14,-42,30,326,0,-3,0,5168,191,75,26,144,0,6,0,0,0,0,0,0,-32329,0,0,0,2934,0,419191,0
419295,110,-374,-8314,-19,-48,35,329,10,1,2,5168,189,85,26,144,0,6,0,0,0,0,0,0,-32329,0,0,0,2934,0,419193,0
419305,58,-370,-8306,-15,-46,37,329,1,0,5,5168,190,69,26,144,0,6,0,0,0,0,0,0,-32329,0,0,0,2933,0,419196,0
419315,90,-352,-8270,-16,-47,37,326,-12,-2,-2,5160,189,52,26,144,0,6,0,0,0,0,0,0,-32329,0,0,0,2934,0,419203,0
419325,38,-330,-8280,-17,-40,37,328,-2,2,0,5168,191,58,26,144,0,6,0,0,0,0,0,0,-32329,0,0,0,2934,0,419213,0
419335,94,-358,-8310,-16,-38,38,327,-9,1,7,5168,184,36,26,144,0,6,0,0,0,0,0,0,-32329,0,0,0,2933,0,419223,0
419345,92,-372,-8294,-17,-32,35,329,2,-1,-3,5160,184,48,26,144,0,6,0,0,0,0,0,0,-32329,0,0,0,2933,0,419234,0
419355,96,-388,-8290,-16,-37,33,328,0,-2,2,5168,185,44,26,144,0,6,0,0,0,0,0,0,-32329,0,0,0,2933,0,419245,0
419365,92,-376,-8268,-15,-39,39,328,4,-2,0,5160,189,56,26,144,0,6,0,0,0,0,0,0,-32329,0,0,0,2934,0,419257,0
419375,98,-376,-8306,-15,-39,39,328,-5,-2,0,5168,186,50,26,144,0,6,0,0,0,0,0,0,-32329,0,0,0,2933,0,419271,0
419385,92,-378,-8300,-18,-40,39,328,0,2,-1,5168,190,70,26,144,0,6,0,0,0,0,0,0,-32329,0,0,0,2933,0,419276,0
419395,84,-390,-8294,-16,-41,40,327,-4,-5,3,5168,189,69,26,144,0,6,0,0,0,0,0,0,-32329,0,0,0,2933,0,419284,0
419405,64,-340,-8296,-18,-41,39,328,-1,1,1,5168,188,62,26,144,0,6,0,0,0,0,0,0,-32329,0,0,0,2933,0,419293,0
419415,64,-368,-8316,-11,-39,44,328,6,-1,-1,5160,187,44,26,144,0,6,0,0,0,0,0,0,-32329,0,0,0,2933,0,419306,0
419425,90,-386,-8302,-13,-38,40,327,0,-2,3,5168,189,33,26,144,0,6,0,0,0,0,0,0,-32328,0,0,0,2933,0,419314,0
419435,92,-392,-8284,-17,-40,36,327,-7,1,3,5168,190,56,26,144,0,6,0,0,0,0,0,0,-32329,0,0,0,2933,0,419325,0
419445,94,-370,-8304,-17,-39,36,328,6,5,0,5168,187,46,26,144,0,6,0,0,0,0,0,0,-32328,0,0,0,2933,0,419333,0
419455,76,-398,-8316,-19,-42,39,329,5,3,1,5168,185,63,26,144,0,6,0,0,0,0,0,0,-32329,0,0,0,2934,0,419374,0
419465,54,-420,-8448,31,-19,31,328,1,0,-1,5152,186,56,26,144,0,6,0,0,0,0,0,0,-32328,0,0,0,2933,0,419386,0
419475,76,-416,-8020,33,38,29,327,-6,0,0,5168,187,60,26,144,0,6,0,0,0,0,0,0,-32329,0,0,0,2933,0,419398,0
419485,80,-406,-8216,-15,78,36,327,-5,0,0,5168,187,59,26,144,0,6,0,0,0,0,0,0,-32328,0,0,0,2934,0,419401,0
419495,92,-394,-8250,-18,53,33,328,0,0,0,5168,185,59,26,144,0,6,0,0,0,0,0,0,-32329,0,0,0,2933,0,419407,0
419505,98,-386,-8230,15,-19,40,328,0,1,0,5168,185,46,26,144,0,6,0,0,0,0,0,0,-32329,0,0,0,2933,0,419410,0
419515,60,-438,-8098,-2,-71,27,328,-1,-4,-2,5152,185,30,26,144,0,6,0,0,0,0,0,0,-32329,0,0,0,2933,0,419412,0
419525,110,-360,-8372,38,-117,40,328,0,5,-2,5168,186,27,26,144,0,6,0,0,0,0,0,0,-32328,0,0,0,2933,0,419414,0
419535,50,-390,-8326,66,-76,33,327,-5,0,1,5168,185,51,26,144,0,6,0,0,0,0,0,0,-32328,0,0,0,2933,0,419424,0
419545,88,-410,-8132,-2,87,14,327,-8,4,-1,5168,185,58,26,144,0,6,0,0,0,0,0,0,-32328,0,0,0,2934,0,419440,0
419555,122,-380,-8204,-22,163,29,328,7,1,2,5168,185,55,26,144,0,6,0,0,0,0,0,0,-32329,0,0,0,2933,0,419446,0
419565,114,-368,-8440,25,143,42,328,-4,0,-5,5152,187,52,26,144,0,6,0,0,0,0,0,0,-32329,0,0,0,2933,0,419457,0
419575,126,-392,-8306,44,71,28,327,-1,-1,0,5168,192,56,26,144,0,6,0,0,0,0,0,0,-32328,0,0,0,2933,0,419473,0
419585,174,-394,-8222,19,-89,32,328,0,-1,-2,5160,194,85,26,144,0,6,0,0,0,0,0,0,-32329,0,0,0,2933,0,419481,0
419595,194,-418,-8280,8,-23,71,327,-4,1,-2,5168,194,83,26,144,0,6,0,0,0,0,0,0,-32329,0,0,0,2933,0,419483,0
419605,-62,-430,-8262,-24,173,95,327,-3,1,3,5168,188,70,26,144,0,6,0,0,0,0,0,0,-32329,0,0,0,2933,0,419493,0
419615,48,-372,-8306,-17,116,75,328,-2,2,-3,5152,187,52,26,144,0,6,0,0,0,0,0,0,-32329,0,0,0,2934,0,419504,0
419625,162,-422,-8240,-31,-142,61,328,9,4,-4,5168,186,40,26,144,0,6,0,0,0,0,0,0,-32329,0,0,0,2934,0,419514,0
419635,294,-392,-8390,-23,-205,64,328,1,-3,0,5168,185,46,26,144,0,6,0,0,0,0,0,0,-32329,0,0,0,2933,0,419525,0
419645,112,-366,-8310,-23,-148,50,326,-5,2,0,5160,190,54,26,144,0,6,0,0,0,0,0,0,-32328,0,0,0,2933,0,419533,0
419655,48,-464,-8376,-14,-82,43,329,3,-1,2,5168,191,52,26,144,0,6,0,0,0,0,0,0,-32329,0,0,0,2933,0,419543,0
419665,80,-404,-8316,-22,-39,50,328,3,-1,0,5160,190,56,26,144,0,6,0,0,0,0,0,0,-32329,0,0,0,2933,0,419556,0
419675,56,-418,-8322,-28,-47,61,328,5,1,3,5168,186,35,26,144,0,6,0,0,0,0,0,0,-32329,0,0,0,2933,0,419563,0
419685,206,-384,-8312,-21,-64,49,328,9,-1,2,5168,185,37,26,144,0,6,0,0,0,0,0,0,-32330,0,0,0,2933,0,419576,0
419695,186,-398,-8294,-21,-79,40,327,-1,1,4,5160,184,37,26,144,0,6,0,0,0,0,0,0,-32329,0,0,0,2933,0,419583,0
419705,124,-406,-8286,-16,-87,35,328,-7,-3,4,5160,183,38,26,144,0,6,0,0,0,0,0,0,-32330,0,0,0,2933,0,419596,0
419715,60,-366,-8248,-40,-132,14,327,-3,2,-3,5152,184,51,26,144,0,6,0,0,0,0,0,0,-32329,0,0,0,2933,0,419609,0
419725,58,-406,-8238,-72,-208,-22,327,-3,-5,-2,5168,185,21,26,144,0,6,0,0,0,0,0,0,-32329,0,0,0,2934,0,419624,0
419735,66,-348,-8332,-75,-228,-45,329,7,4,4,5168,188,19,26,144,0,6,0,0,0,0,0,0,-32329,0,0,0,2935,0,419629,0
419745,6,-276,-8302,-70,-253,-194,327,5,-3,-5,5160,188,28,26,144,0,6,0,0,0,0,0,0,-32330,0,0,0,2933,0,419634,0
419755,-2,-330,-8378,-50,-204,-334,329,6,7,2,5168,188,42,26,144,0,6,0,0,0,0,0,0,-32330,0,0,0,2934,0,419656,0
419765,-106,-356,-8334,5,5,-445,329,4,3,0,5160,187,52,26,144,0,6,0,0,0,0,0,0,-32328,0,0,0,2934,0,419666,0
419775,-168,-428,-8232,1,97,-438,328,4,0,2,5168,185,50,26,144,0,6,0,0,0,0,0,0,-32329,0,0,0,2933,0,419668,0
419785,168,-572,-8214,-50,126,-338,328,0,2,-3,5168,186,58,26,144,0,6,0,0,0,0,0,0,-32329,0,0,0,2933,0,419673,0
419795,374,-404,-8278,-57,105,-246,328,-1,-3,-3,5160,185,62,26,144,0,6,0,0,0,0,0,0,-32330,0,0,0,2933,0,419686,0
419805,520,-352,-8346,-37,0,-56,326,-6,-4,1,5168,187,60,26,144,0,6,0,0,0,0,0,0,-32328,0,0,0,2933,0,419696,0
419815,388,-388,-8296,-21,-103,56,327,-2,0,-1,5160,185,55,26,144,0,6,0,0,0,0,0,0,-32329,0,0,0,2933,0,419714,0
419825,104,-386,-8276,-28,-198,99,328,-1,2,0,5168,187,52,26,144,0,6,0,0,0,0,0,0,-32328,0,0,0,2934,0,419738,0
419835,-22,-368,-8282,-38,-201,56,328,0,-1,0,5168,187,60,26,144,0,6,0,0,0,0,0,0,-32330,0,0,0,2933,0,419741,0
419845,70,-400,-8316,-27,-135,13,327,2,-2,0,5160,185,61,26,144,0,6,0,0,0,0,0,0,-32328,0,0,0,2933,0,419743,0
419855,94,-372,-8292,-19,-64,20,328,0,4,1,5168,187,58,26,144,0,6,0,0,0,0,0,0,-32330,0,0,0,2933,0,419746,0
419865,78,-394,-8324,-1,42,46,328,5,0,-3,5160,189,52,26,144,0,6,0,0,0,0,0,0,-32330,0,0,0,2933,0,419753,0
419875,112,-366,-8336,6,107,62,328,5,0,-2,5168,191,49,26,144,0,6,0,0,0,0,0,0,-32330,0,0,0,2933,0,419763,0
419885,-26,-366,-8256,26,118,83,328,5,2,3,5168,190,41,26,144,0,6,0,0,0,0,0,0,-32330,0,0,0,2933,0,419774,0
419895,112,-406,-8156,-30,-46,37,328,6,2,-2,5160,190,50,26,144,0,6,0,0,0,0,0,0,-32329,0,0,0,2933,0,419792,0
419905,92,-356,-8380,-22,-248,30,328,1,4,1,5168,188,54,26,144,0,6,0,0,0,0,0,0,-32329,0,0,0,2933,0,419800,0
419915,78,-404,-8322,-17,-258,25,327,-6,2,-2,5160,187,75,26,144,0,6,0,0,0,0,0,0,-32329,0,0,0,2933,0,419806,0
419925,104,-346,-8236,-25,-148,-26,328,3,1,0,5168,188,76,26,144,0,6,0,0,0,0,0,0,-32329,0,0,0,2933,0,419813,0
419935,242,-310,-8204,-40,-67,-118,328,2,3,2,5168,187,62,26,144,0,6,0,0,0,0,0,0,-32329,0,0,0,2934,0,419825,0
419945,186,-274,-8318,-29,-17,-270,327,-4,1,-2,5160,188,55,26,144,0,6,0,0,0,0,0,0,-32328,0,0,0,2933,0,419836,0
419955,152,-348,-8324,-13,-29,-331,328,0,0,0,5168,186,37,26,144,0,6,0,0,0,0,0,0,-32329,0,0,0,2933,0,419847,0
419965,-10,-302,-8350,6,-45,-349,328,-1,1,-1,5168,188,58,26,144,0,6,0,0,0,0,0,0,-32329,0,0,0,2934,0,419853,0
419975,-90,-324,-8244,2,-73,-293,328,0,-2,-1,5176,185,73,26,144,0,6,0,0,0,0,0,0,-32329,0,0,0,2933,0,419863,0
419985,70,-512,-8208,-80,-134,-208,327,-6,-2,1,5168,189,81,26,144,0,6,0,0,0,0,0,0,-32329,0,0,0,2933,0,419874,0
419995,248,-410,-8242,-96,-160,-168,328,4,-1,0,5160,187,69,26,144,0,6,0,0,0,0,0,0,-32329,0,0,0,2933,0,419889,0
420005,376,-416,-8404,-69,-188,-152,329,5,8,2,5168,188,58,26,144,0,6,0,0,0,0,0,0,-32329,0,0,0,2933,0,419896,0
420015,538,-414,-8350,-43,-147,-196,328,1,-2,-5,5168,189,55,26,144,0,6,0,0,0,0,0,0,-32329,0,0,0,2933,0,419906,0
420025,538,-466,-8222,-57,-105,-300,327,-2,-1,2,5168,187,47,26,144,0,6,0,0,0,0,0,0,-32329,0,0,0,2933,0,419913,0
420035,372,-574,-8250,-81,-102,-341,328,0,-4,2,5168,189,53,26,144,0,6,0,0,0,0,0,0,-32329,0,0,0,2934,0,419935,0
420045,210,-508,-8288,-110,-197,-332,327,-2,1,-1,5160,186,64,26,144,0,6,0,0,0,0,0,0,-32330,0,0,0,2934,0,419938,0
420055,32,-378,-8344,-119,-240,-283,327,-4,-2,0,5168,189,90,26,144,0,6,0,0,0,0,0,0,-32328,0,0,0,2934,0,419946,0
420065,-322,-264,-8264,-127,-192,-219,328,5,-1,0,5160,187,71,26,144,0,6,0,0,0,0,0,0,-32328,0,0,0,2933,0,419954,0
420075,-724,-142,-8364,-145,-261,-151,328,3,3,0,5168,188,63,26,144,0,6,0,0,0,0,0,0,-32329,0,0,0,2934,0,419966,0
420085,-532,-112,-8326,-225,-462,-41,328,0,1,-2,5168,188,62,26,144,0,6,0,0,0,0,0,0,-32328,0,0,0,2936,0,419979,0
420095,-312,-208,-8518,-277,-616,14,327,-7,-2,1,5160,188,74,26,144,0,6,0,0,0,0,0,0,-32329,0,0,0,2935,0,420003,0
420105,-194,-250,-8862,-295,-880,138,328,-6,-3,1,5168,188,75,26,144,0,6,0,0,0,0,0,0,-32329,0,0,0,2935,0,420030,0
420115,-692,-276,-8658,-303,-1024,329,328,-5,-2,0,5168,191,68,26,144,0,6,0,0,0,0,0,0,-32328,0,0,0,2935,0,420048,0
420125,-1248,-470,-8554,-358,-1357,772,328,1,-2,-1,5168,191,48,26,144,0,6,0,0,0,0,0,0,-32328,0,0,0,2935,0,420050,0
420135,-660,-708,-9328,-411,-1170,1019,328,-2,0,1,5168,190,59,26,144,0,6,0,0,0,0,0,0,-32329,0,0,0,2935,0,420069,0
420145,-808,-218,-8458,-380,-1178,1252,327,-3,-1,0,5160,183,45,26,144,0,6,0,0,0,0,0,0,-32329,0,0,0,2935,0,420078,0
420155,-192,332,-7722,-345,-1019,1226,328,2,1,0,5176,182,42,26,144,0,6,0,0,0,0,0,0,-32328,0,0,0,2935,0,420087,0
420165,412,400,-7698,-246,-676,893,327,-4,-3,-1,5168,185,45,26,144,0,6,0,0,0,0,0,0,-32329,0,0,0,2935,0,420096,0
420175,774,-282,-7832,-163,-436,444,328,0,-2,-2,5160,186,65,26,144,0,6,0,0,0,0,0,0,-32329,0,0,0,2935,0,420101,0
420185,1586,-860,-8056,-124,-108,-29,327,-1,1,0,5168,187,77,26,144,0,6,0,0,0,0,0,0,-32329,0,0,0,2936,0,420101,0
420195,732,-818,-8700,-84,-74,-165,328,0,1,-1,5160,187,92,26,144,0,6,0,0,0,0,0,0,-32329,0,0,0,2936,0,420103,0
420205,-1036,-262,-8228,28,37,-90,328,1,0,1,5168,191,84,26,144,0,6,0,0,0,0,0,0,-32329,0,0,0,2936,0,420110,0
420215,-1428,-84,-7960,69,196,57,328,0,4,-1,5168,190,95,26,144,0,6,0,0,0,0,0,0,-32329,0,0,0,2936,0,420113,0
420225,-1158,-100,-8236,64,339,222,327,-7,-1,1,5152,190,86,26,144,0,6,0,0,0,0,0,0,-32329,0,0,0,2935,0,420118,0
420235,-932,186,-8646,5,92,215,328,7,3,1,5168,188,78,26,144,0,6,0,0,0,0,0,0,-32329,0,0,0,2935,0,420129,0
420245,-42,-122,-8162,-6,13,203,327,-4,-2,0,5144,189,84,26,144,0,6,0,0,0,0,0,0,-32329,0,0,0,2935,0,420137,0
420255,-88,-182,-8152,4,54,170,328,1,-2,4,5168,188,77,26,144,0,6,0,0,0,0,0,0,-32329,0,0,0,2935,0,420146,0
420265,-86,-102,-8398,-21,-38,145,329,9,2,1,5168,188,93,26,144,0,6,0,0,0,0,0,0,-32328,0,0,0,2935,0,420153,0
420275,116,-108,-8350,-43,-75,90,328,-2,1,0,5160,186,61,26,144,0,6,0,0,0,0,0,0,-32330,0,0,0,2935,0,420167,0
420285,468,140,-8430,-102,-164,-34,327,0,1,-4,5168,187,74,26,144,0,6,0,0,0,0,0,0,-32329,0,0,0,2935,0,420174,0
420295,538,192,-8370,-144,-236,-106,327,-5,-2,-4,5168,188,80,26,144,0,6,0,0,0,0,0,0,-32329,0,0,0,2935,0,420190,0
420305,34,106,-8522,-243,-396,-171,328,2,4,4,5168,189,82,26,144,0,6,0,0,0,0,0,0,-32329,0,0,0,2935,0,420212,0
420315,-452,578,-9054,-392,-765,-126,328,-3,0,0,5160,190,83,26,144,0,6,0,0,0,0,0,0,-32329,0,0,0,2936,0,420219,0
420325,-670,270,-8818,-441,-1275,27,328,3,4,0,5160,190,60,26,144,0,6,0,0,0,0,0,0,-32329,0,0,0,2937,0,420227,0
420335,-538,20,-8242,-429,-1324,120,328,3,-1,-2,5168,190,70,26,144,0,6,0,0,0,0,0,0,-32329,0,0,0,2937,0,420232,0
420345,214,-974,-7934,-196,-414,177,328,1,-3,-1,5168,190,79,26,144,0,6,0,0,0,0,0,0,-32329,0,0,0,2937,0,420237,0
420355,628,-714,-5588,-252,247,239,328,1,3,0,5168,188,109,26,144,0,6,0,0,0,0,0,0,-32329,0,0,0,2936,0,420250,0
420365,-726,-1360,-7654,-3,107,221,328,0,0,-5,5160,188,114,26,144,0,6,0,0,0,0,0,0,-32329,0,0,0,2937,0,420263,0
420375,-538,-952,-8232,72,48,166,327,-4,-1,1,5160,186,80,26,144,0,6,0,0,0,0,0,0,-32329,0,0,0,2936,0,420268,0
420385,-910,72,-8568,45,91,153,328,4,2,4,5168,187,71,26,144,0,6,0,0,0,0,0,0,-32330,0,0,0,2936,0,420273,0
420395,-964,350,-8598,30,53,205,329,4,-3,0,5168,187,41,26,144,0,6,0,0,0,0,0,0,-32330,0,0,0,2936,0,420283,0
420405,-1498,114,-8370,29,-7,254,329,8,0,1,5168,185,48,26,144,0,6,0,0,0,0,0,0,-32330,0,0,0,2936,0,420294,0
420415,-2180,-542,-8104,13,32,117,326,-9,-3,0,5168,186,58,26,144,0,6,0,0,0,0,0,0,-32328,0,0,0,2936,0,420305,0
420425,-142,-192,-8674,-22,167,111,328,2,2,0,5160,187,45,26,144,0,6,0,0,0,0,0,0,-32329,0,0,0,2935,0,420318,0
420435,98,-118,-8468,-30,85,102,328,-1,-6,0,5168,189,75,26,144,0,6,0,0,0,0,0,0,-32329,0,0,0,2933,0,420341,0
420445,614,-434,-8460,-34,17,-37,328,-6,4,-2,5160,185,76,26,144,0,6,0,0,0,0,0,0,-32330,0,0,0,2922,-1,420344,0
420455,588,-484,-8626,-81,60,-118,329,2,2,0,5168,184,81,26,144,0,6,0,0,0,0,0,0,-32329,0,0,0,2904,-2,420357,0
420465,-280,-350,-8712,-109,-36,-221,328,4,-2,-1,5168,185,63,26,144,0,6,0,0,0,0,0,0,-32330,0,0,0,2884,-2,420361,0
420475,-592,-370,-8386,-125,-46,-271,327,-2,4,0,5160,187,50,26,144,0,6,0,0,0,0,0,0,-32329,0,0,0,2865,-2,420366,0
420485,-864,-312,-8268,-137,-22,-247,327,-8,0,0,5168,184,47,26,144,0,6,0,0,0,0,0,0,-32329,0,0,0,2848,-1,420376,0
420495,-876,-708,-8068,-117,-28,-195,328,1,0,1,5168,183,45,26,144,0,6,0,0,0,0,0,0,-32328,0,0,0,2832,-1,420386,0
420505,-940,-1048,-8184,-90,-17,-98,328,-1,-6,1,5168,185,46,26,144,0,6,0,0,0,0,0,0,-32329,0,0,0,2818,-1,420400,0
420515,-928,-1134,-8278,-81,-13,-32,328,0,-3,0,5160,185,26,26,144,0,6,0,0,0,0,0,0,-32329,0,0,0,2805,-1,420412,0
420525,-982,-1336,-8372,-85,-22,68,328,0,0,-1,5160,187,33,26,144,0,6,0,0,0,0,0,0,-32329,0,0,0,2796,0,420415,0
420535,546,3646,-11880,74,689,160,327,-10,1,-2,5168,185,46,26,144,0,6,0,0,0,0,0,0,-32329,0,0,0,2786,-1,420423,0
420545,-834,-62,-8650,-124,245,161,328,0,-3,-2,5168,190,65,26,144,0,6,0,0,0,0,0,0,-32330,0,0,0,2776,-1,420438,0
420555,-556,-1262,-8114,-130,301,151,329,-1,3,1,5168,188,77,26,144,0,6,0,0,0,0,0,0,-32329,0,0,0,2763,-1,420448,0
420565,-864,-1464,-7906,-40,255,163,327,-5,-2,-1,5160,188,72,26,144,0,6,0,0,0,0,0,0,-32329,0,0,0,2750,-1,420457,0
420575,-952,-1284,-7600,-13,87,248,328,1,6,-7,5168,188,53,26,144,0,6,0,0,0,0,0,0,-32329,0,0,0,2744,0,420464,0
420585,-712,-904,-8064,-2,20,329,328,-2,1,0,5168,189,64,26,144,0,6,0,0,0,0,0,0,-32328,0,0,0,2743,0,420479,0
420595,-394,-372,-8372,5,5,326,328,0,3,0,5168,187,54,26,144,0,6,0,0,0,0,0,0,-32329,0,0,0,2743,0,420486,0
420605,-424,-444,-8278,-3,-98,311,328,2,2,1,5160,188,82,26,144,0,6,0,0,0,0,0,0,-32328,0,0,0,2743,0,420494,0
420615,-384,-12,-8502,-26,-111,286,328,4,-1,-2,5176,186,66,26,144,0,6,0,0,0,0,0,0,-32329,0,0,0,2743,0,420503,0
420625,-302,458,-8458,-42,-90,257,328,-1,-3,-1,5160,185,66,26,144,0,6,0,0,0,0,0,0,-32329,0,0,0,2743,0,420518,0
420635,-438,676,-8340,-56,-91,246,327,-1,7,1,5168,184,55,26,144,0,6,0,0,0,0,0,0,-32328,0,0,0,2742,0,420526,0
420645,-306,738,-8266,-53,-110,236,329,1,-5,0,5168,183,58,26,144,0,6,0,0,0,0,0,0,-32328,0,0,0,2743,0,420534,0
420655,132,694,-7994,-47,-52,185,327,0,1,2,5160,184,60,26,144,0,6,0,0,0,0,0,0,-32329,0,0,0,2738,0,420544,0
420665,108,894,-8192,-4,-84,122,328,-3,-1,0,5168,185,64,26,144,0,6,0,0,0,0,0,0,-32329,0,0,0,2725,-1,420559,0
420675,-284,936,-8404,-6,-85,109,329,2,0,-4,5160,186,63,26,144,0,6,0,0,0,0,0,0,-32328,0,0,0,2709,-1,420566,0
420685,-562,626,-8236,-16,-56,128,327,1,2,-1,5168,190,75,26,144,0,6,0,0,0,0,0,0,-32329,0,0,0,2693,-1,420573,0
420695,-658,204,-8240,-8,-64,158,328,2,6,-5,5176,190,66,26,144,0,6,0,0,0,0,0,0,-32328,0,0,0,2677,-1,420584,0
420705,-794,144,-8340,9,-96,209,328,-1,2,3,5160,191,61,26,144,0,6,0,0,0,0,0,0,-32328,0,0,0,2664,-1,420598,0
420715,-632,248,-8378,-7,-84,244,328,4,3,0,5168,193,60,26,144,0,6,0,0,0,0,0,0,-32328,0,0,0,2658,0,420606,0
420725,-364,-38,-8468,-25,-93,289,328,2,5,1,5168,194,68,26,144,0,6,0,0,0,0,0,0,-32329,0,0,0,2656,0,420614,0
420735,-474,398,-8344,-37,-98,276,327,0,0,3,5160,193,71,26,144,0,6,0,0,0,0,0,0,-32328,0,0,0,2657,0,420624,0
420745,-322,508,-8280,-54,-77,269,329,1,2,-2,5168,190,74,26,144,0,6,0,0,0,0,0,0,-32328,0,0,0,2657,0,420661,0
420755,-224,440,-8260,-61,-37,243,328,1,1,1,5160,187,68,26,144,0,6,0,0,0,0,0,0,-32329,0,0,0,2657,0,420678,0
420765,-54,142,-8086,-35,-19,190,327,-1,1,-2,5168,186,50,26,144,0,6,0,0,0,0,0,0,-32329,0,0,0,2657,0,420686,0
420775,70,476,-8122,-9,-26,135,329,1,1,1,5160,187,54,26,144,0,6,0,0,0,0,0,0,-32329,0,0,0,2657,0,420688,0
420785,-324,240,-8284,7,2,57,326,-8,-5,5,5168,187,42,26,144,0,6,0,0,0,0,0,0,-32329,0,0,0,2657,0,420691,0
420795,-598,472,-8390,6,2,31,329,3,2,3,5168,189,43,26,144,0,6,0,0,0,0,0,0,-32328,0,0,0,2658,0,420694,0
420805,-780,544,-8486,-12,-26,16,328,0,-1,4,5160,186,35,26,144,0,6,0,0,0,0,0,0,-32328,0,0,0,2657,0,420696,0
420815,-634,908,-8424,-38,-24,24,328,0,1,2,5168,184,26,26,144,0,6,0,0,0,0,0,0,-32329,0,0,0,2658,0,420707,0
420825,-622,758,-8392,-44,-75,102,328,-2,-1,3,5168,182,40,26,144,0,6,0,0,0,0,0,0,-32329,0,0,0,2658,0,420720,0
420835,-470,720,-8268,-41,-90,158,328,-1,-2,0,5168,186,48,26,144,0,6,0,0,0,0,0,0,-32329,0,0,0,2657,0,420726,0
420845,-322,982,-8200,-35,-43,216,327,-3,-2,-2,5168,190,66,26,144,0,6,0,0,0,0,0,0,-32328,0,0,0,2657,0,420733,0
420855,-110,920,-8100,-27,-16,254,328,-1,-3,0,5168,190,65,26,144,0,6,0,0,0,0,0,0,-32331,0,0,0,2657,0,420743,0
420865,-286,466,-8234,-20,5,258,328,5,0,0,5168,190,59,26,144,0,6,0,0,0,0,0,0,-32329,0,0,0,2657,0,420782,0
420875,-446,86,-8276,0,-30,223,328,0,3,0,5168,188,32,26,144,0,6,0,0,0,0,0,0,-32329,0,0,0,2657,0,420794,0
420885,-244,-636,-8390,-24,-1,179,329,0,2,-1,5168,187,26,26,144,0,6,0,0,0,0,0,0,-32328,0,0,0,2658,0,420799,0
420895,-204,-1042,-8398,-33,-5,156,328,-1,1,0,5160,180,12,26,144,0,6,0,0,0,0,0,0,-32328,0,0,0,2658,0,420811,0
420905,-198,-1334,-8412,-17,-55,81,328,-4,-2,1,5160,183,62,26,144,0,6,0,0,0,0,0,0,-32329,0,0,0,2658,0,420822,0
420915,-156,-1256,-8300,-22,-79,32,328,1,-2,0,5168,185,54,26,144,0,6,0,0,0,0,0,0,-32329,0,0,0,2658,0,420824,0
420925,-206,-894,-8338,-17,-76,-50,327,-8,-5,1,5168,187,70,26,144,0,6,0,0,0,0,0,0,-32329,0,0,0,2657,0,420836,0
420935,-258,-618,-8312,-26,-61,-86,328,0,-2,-3,5168,186,43,26,144,0,6,0,0,0,0,0,0,-32328,0,0,0,2658,0,420838,0
420945,-442,-264,-8300,-21,-76,-108,328,0,0,0,5168,185,56,26,144,0,6,0,0,0,0,0,0,-32327,0,0,0,2658,0,420853,0
420955,-526,-90,-8344,-24,-79,-109,327,-2,-2,1,5168,182,49,26,144,0,6,0,0,0,0,0,0,-32329,0,0,0,2657,0,420859,0
420965,-426,-344,-8380,-24,-57,-107,328,3,1,-1,5168,182,28,26,144,0,6,0,0,0,0,0,0,-32329,0,0,0,2657,0,420861,0
420975,-314,-670,-8288,-43,-12,-101,327,-1,-4,-1,5168,185,45,26,144,0,6,0,0,0,0,0,0,-32330,0,0,0,2657,0,420864,0
420985,-402,-688,-8192,-28,-14,-95,328,0,2,0,5168,187,33,26,144,0,6,0,0,0,0,0,0,-32330,0,0,0,2658,0,420887,0
420995,-644,-14,-8226,-25,-11,-80,327,1,3,-1,5160,187,38,26,144,0,6,0,0,0,0,0,0,-32328,0,0,0,2657,0,420896,0
421005,-728,-242,-8278,-14,-19,-23,328,-5,2,3,5160,191,21,26,144,0,6,0,0,0,0,0,0,-32328,0,0,0,2658,0,420898,0
421015,-690,-304,-8276,-9,-19,10,328,-1,-2,0,5160,193,22,26,144,0,6,0,0,0,0,0,0,-32329,0,0,0,2657,0,420906,0
421025,-626,-116,-8352,-11,-28,54,327,-6,-3,2,5168,191,14,25,144,0,6,0,0,0,0,0,0,-32328,0,0,0,2658,0,420913,0
421035,-556,-244,-8338,-18,-50,69,328,1,-1,6,5168,190,42,26,144,0,6,0,0,0,0,0,0,-32330,0,0,0,2656,0,420926,0
421045,-406,-304,-8262,-19,-24,65,327,-2,-1,0,5168,188,26,26,144,0,6,0,0,0,0,0,0,-32329,0,0,0,2657,0,420934,0
421055,-346,-338,-8358,-23,-28,59,328,0,-2,0,5168,190,32,26,144,0,6,0,0,0,0,0,0,-32330,0,0,0,2657,0,420944,0
421065,-274,-636,-8304,-17,-46,46,326,-5,-7,-1,5160,191,31,26,144,0,6,0,0,0,0,0,0,-32330,0,0,0,2657,0,420966,0
421075,-282,-966,-8308,-16,-44,28,327,0,-2,1,5176,190,43,26,144,0,6,0,0,0,0,0,0,-32329,0,0,0,2658,0,420968,0
421085,-374,-782,-8370,-8,-62,10,328,0,1,0,5160,187,40,26,144,0,6,0,0,0,0,0,0,-32329,0,0,0,2657,0,421025,0
421095,-390,-726,-8348,-13,-73,9,328,1,3,-1,5168,182,33,26,144,0,6,0,0,0,0,0,0,-32328,0,0,0,2657,0,421038,0
421105,-540,-506,-8320,-8,-113,12,328,-2,1,0,5168,181,20,26,144,0,6,0,0,0,0,0,0,-32329,0,0,0,2657,0,421045,0
421115,-514,-478,-8334,-25,-113,25,328,-4,-1,-3,5168,181,48,26,144,0,6,0,0,0,0,0,0,-32329,0,0,0,2657,0,421048,0
421125,-490,-544,-8324,-29,-98,50,328,3,-3,0,5168,185,62,26,144,0,6,0,0,0,0,0,0,-32328,0,0,0,2656,0,421052,0
421135,-508,-664,-8284,-34,-84,52,329,-5,2,0,5168,189,76,26,144,0,6,0,0,0,0,0,0,-32329,0,0,0,2656,0,421052,0
421145,-474,-388,-8224,-24,-77,56,327,0,-2,2,5168,191,48,26,144,0,6,0,0,0,0,0,0,-32328,0,0,0,2656,0,421052,0
421155,-588,-300,-8174,-18,-64,60,327,0,0,0,5168,190,34,26,144,0,6,0,0,0,0,0,0,-32329,0,0,0,2656,0,421054,0
421165,-546,268,-8234,5,-79,83,328,0,1,-1,5160,192,46,26,144,0,6,0,0,0,0,0,0,-32328,0,0,0,2656,0,421056,0
421175,-716,386,-8304,3,-66,114,328,-2,-3,2,5168,191,29,26,144,0,6,0,0,0,0,0,0,-32329,0,0,0,2657,0,421064,0
421185,-628,386,-8470,-7,-72,136,328,3,0,4,5168,194,36,26,144,0,6,0,0,0,0,0,0,-32328,0,0,0,2657,0,421074,0
421195,-534,276,-8542,-17,-78,153,328,1,1,-1,5176,191,43,26,144,0,6,0,0,0,0,0,0,-32329,0,0,0,2656,0,421083,0
421205,-512,138,-8444,-30,-117,193,328,-3,0,7,5168,189,44,26,144,0,6,0,0,0,0,0,0,-32329,0,0,0,2656,0,421102,0
421215,-258,74,-8372,-47,-108,206,328,5,3,-2,5168,183,28,26,144,0,6,0,0,0,0,0,0,-32329,0,0,0,2656,0,421113,0
421225,-30,454,-8324,-54,-116,185,327,-5,4,2,5168,182,47,26,144,0,6,0,0,0,0,0,0,-32329,0,0,0,2656,0,421125,0
421235,-208,686,-8088,-62,-90,188,329,0,0,3,5168,185,57,26,144,0,6,0,0,0,0,0,0,-32329,0,0,0,2656,0,421128,0
421245,-342,1200,-8008,-29,-40,190,328,-3,1,1,5168,183,86,26,144,0,6,0,0,0,0,0,0,-32329,0,0,0,2656,0,421137,0
421255,-454,1200,-8068,-8,-11,162,327,1,-1,0,5168,183,87,26,144,0,6,0,0,0,0,0,0,-32328,0,0,0,2656,0,421143,0
421265,-286,42,-8248,-1,-3,102,328,3,0,0,5168,182,77,26,144,0,6,0,0,0,0,0,0,-32329,0,0,0,2656,0,421153,0
421275,174,218,-8364,14,-50,48,327,0,-1,-1,5168,187,64,26,144,0,6,0,0,0,0,0,0,-32329,0,0,0,2652,0,421166,0
421285,-566,-96,-8460,-2,-50,0,329,1,3,0,5168,188,54,26,144,0,6,0,0,0,0,0,0,-32329,0,0,0,2645,0,421173,0
421295,-910,-164,-8418,-28,-49,60,328,2,0,-4,5168,187,42,26,144,0,6,0,0,0,0,0,0,-32329,0,0,0,2641,0,421192,0
421305,-462,116,-8150,-31,-25,105,327,0,1,0,5168,184,27,26,144,0,6,0,0,0,0,0,0,-32329,0,0,0,2641,0,421194,0
421315,-312,206,-8158,-23,1,105,328,-1,-2,-1,5168,182,16,26,144,0,6,0,0,0,0,0,0,-32329,0,0,0,2642,0,421205,0
421325,-352,94,-8206,-22,53,78,327,-1,0,-2,5168,181,15,26,144,0,6,0,0,0,0,0,0,-32329,0,0,0,2642,0,421242,0
421335,-548,144,-8260,-6,50,69,328,0,4,1,5168,181,37,26,144,0,6,0,0,0,0,0,0,-32328,0,0,0,2641,0,421247,0
421345,-598,364,-8410,2,5,76,327,0,4,-1,5168,183,55,26,144,0,6,0,0,0,0,0,0,-32328,0,0,0,2642,0,421256,0
421355,-454,570,-8436,-6,-1,73,329,5,2,1,5168,187,65,26,144,0,6,0,0,0,0,0,0,-32329,0,0,0,2641,0,421258,0
421365,-436,1014,-8436,-24,-30,67,326,-5,-2,-1,5176,191,90,26,144,0,6,0,0,0,0,0,0,-32329,0,0,0,2642,0,421261,0
421375,-448,1250,-8376,-33,-45,79,327,-3,3,0,5168,192,95,26,144,0,6,0,0,0,0,0,0,-32328,0,0,0,2642,0,421313,0
421385,-236,1598,-8320,-41,-40,98,328,2,-2,1,5168,188,86,26,144,0,6,0,0,0,0,0,0,-32329,0,0,0,2641,0,421319,0
421395,-100,1358,-8266,-35,-54,123,326,-6,-5,-1,5160,190,86,26,144,0,6,0,0,0,0,0,0,-32329,0,0,0,2642,0,421321,0
421405,-518,1078,-8244,-17,-84,147,327,-4,1,0,5176,188,60,26,144,0,6,0,0,0,0,0,0,-32329,0,0,0,2642,0,421328,0
421415,-378,618,-8304,-27,-47,164,327,-6,-1,-2,5168,190,84,26,144,0,6,0,0,0,0,0,0,-32329,0,0,0,2643,0,421331,0
421425,-384,-160,-8260,-21,-49,158,328,3,3,0,5168,190,85,26,144,0,6,0,0,0,0,0,0,-32329,0,0,0,2641,0,421331,0
421435,-478,-696,-8234,-10,-62,133,328,0,2,2,5168,187,63,26,144,0,6,0,0,0,0,0,0,-32329,0,0,0,2642,0,421338,0
421445,-416,-1156,-8038,1,-48,68,328,4,2,2,5168,185,53,26,144,0,6,0,0,0,0,0,0,-32329,0,0,0,2641,0,421349,0
421455,-296,-1404,-8212,9,-92,28,328,0,0,0,5168,186,63,26,144,0,6,0,0,0,0,0,0,-32329,0,0,0,2642,0,421357,0
421465,-344,-1350,-8258,11,-104,-20,329,3,-1,-2,5168,189,92,26,144,0,6,0,0,0,0,0,0,-32329,0,0,0,2642,0,421360,0
421475,-316,-1070,-8376,-1,-107,-40,327,0,-4,-1,5168,191,93,26,144,0,6,0,0,0,0,0,0,-32329,0,0,0,2643,0,421367,0
421485,-480,-868,-8404,-17,-140,-65,329,11,-4,2,5176,192,94,26,144,0,6,0,0,0,0,0,0,-32329,0,0,0,2642,0,421379,0
421495,-490,-710,-8410,-33,-161,-66,328,1,-2,1,5168,191,119,26,144,0,6,0,0,0,0,0,0,-32329,0,0,0,2642,0,421393,0
421505,-530,-1000,-8324,-41,-143,-58,327,-2,0,0,5168,192,105,26,144,0,6,0,0,0,0,0,0,-32328,0,0,0,2641,0,421398,0
421515,-548,-1104,-8298,-48,-106,-45,328,0,-1,0,5168,188,90,26,144,0,6,0,0,0,0,0,0,-32330,0,0,0,2641,0,421406,0
421525,-770,-304,-8188,-43,-8,-9,329,5,3,0,5168,186,56,26,144,0,6,0,0,0,0,0,0,-32329,0,0,0,2642,0,421416,0
421535,-742,-430,-8190,-28,8,23,327,-3,2,1,5160,188,46,26,144,0,6,0,0,0,0,0,0,-32329,0,0,0,2642,0,421424,0
421545,-518,-440,-8144,-27,89,46,327,-10,-1,-2,5160,189,52,26,144,0,6,0,0,0,0,0,0,-32329,0,0,0,2641,0,421438,0
421555,-484,-384,-8228,-18,125,60,327,-1,2,-2,5168,187,49,26,144,0,6,0,0,0,0,0,0,-32328,0,0,0,2642,0,421447,0
421565,-450,-474,-8326,-9,120,75,328,2,-1,2,5176,185,71,26,144,0,6,0,0,0,0,0,0,-32327,0,0,0,2641,0,421454,0
421575,-416,-482,-8300,-2,103,76,328,-3,-2,1,5168,186,86,26,144,0,6,0,0,0,0,0,0,-32330,0,0,0,2641,0,421467,0
421585,-510,-468,-8448,-1,22,72,328,-1,-2,0,5160,188,101,26,144,0,6,0,0,0,0,0,0,-32328,0,0,0,2642,0,421473,0
421595,-408,-428,-8514,-5,-30,58,329,0,-2,-2,5168,187,98,26,144,0,6,0,0,0,0,0,0,-32330,0,0,0,2642,0,421483,0
421605,22,-384,-8396,-33,-62,-36,329,5,3,3,5168,187,77,26,144,0,6,0,0,0,0,0,0,-32330,0,0,0,2637,-1,421494,0
421615,44,-418,-8326,-33,-73,-95,328,-7,-5,-3,5168,188,67,26,144,0,6,0,0,0,0,0,0,-32327,0,0,0,2629,-1,421508,0
421625,-514,-362,-8332,-29,-109,-108,328,0,-2,-1,5168,189,41,26,144,0,6,0,0,0,0,0,0,-32328,0,0,0,2619,-1,421516,0
421635,-600,-472,-8222,-37,-95,-86,328,-3,-3,0,5168,187,44,26,144,0,6,0,0,0,0,0,0,-32328,0,0,0,2612,0,421524,0
421645,-660,-550,-8180,-27,-77,-40,329,4,2,-2,5168,184,47,26,144,0,6,0,0,0,0,0,0,-32330,0,0,0,2610,0,421537,0
421655,-554,-488,-8256,-17,-76,-25,328,-1,-4,3,5168,183,57,26,144,0,6,0,0,0,0,0,0,-32329,0,0,0,2610,0,421543,0
421665,-594,-370,-8460,-32,-57,-14,328,1,1,-1,5168,184,72,26,144,0,6,0,0,0,0,0,0,-32330,0,0,0,2609,0,421554,0
421675,-592,-512,-8340,-45,-64,-6,329,1,1,0,5168,186,62,26,144,0,6,0,0,0,0,0,0,-32328,0,0,0,2609,0,421564,0
421685,-368,-346,-8298,-57,-57,-23,327,-8,-2,0,5168,189,56,26,144,0,6,0,0,0,0,0,0,-32328,0,0,0,2609,0,421576,0
421695,-376,46,-8338,-43,-99,-60,328,-1,-8,1,5168,187,49,26,144,0,6,0,0,0,0,0,0,-32329,0,0,0,2603,0,421584,0
421705,-696,296,-8202,-44,-84,-37,328,0,-2,2,5168,187,50,26,144,0,6,0,0,0,0,0,0,-32330,0,0,0,2597,0,421596,0
421715,-822,606,-8232,-25,-74,5,328,-3,4,-2,5168,186,62,26,144,0,6,0,0,0,0,0,0,-32329,0,0,0,2591,0,421603,0
421725,-630,418,-8178,-26,-40,53,328,-3,-1,-1,5176,188,63,26,144,0,6,0,0,0,0,0,0,-32330,0,0,0,2588,0,421613,0
421735,-502,692,-8324,-27,-36,91,328,4,2,4,5168,187,67,26,144,0,6,0,0,0,0,0,0,-32330,0,0,0,2586,0,421626,0
421745,-380,1072,-8400,-36,-52,157,329,5,6,0,5168,185,68,26,144,0,6,0,0,0,0,0,0,-32328,0,0,0,2584,0,421633,0
421755,-434,1022,-8314,-32,-41,179,328,1,0,-1,5168,186,72,26,144,0,6,0,0,0,0,0,0,-32330,0,0,0,2582,0,421644,0
421765,-446,1090,-8094,-22,-3,202,327,-2,-1,1,5168,186,67,26,144,0,6,0,0,0,0,0,0,-32328,0,0,0,2581,0,421654,0
421775,-242,564,-8104,4,-13,186,329,0,5,0,5176,188,63,26,144,0,6,0,0,0,0,0,0,-32330,0,0,0,2581,0,421669,0
421785,-196,356,-8202,48,-55,142,328,4,0,-2,5168,186,67,26,144,0,6,0,0,0,0,0,0,-32329,0,0,0,2581,0,421673,0
421795,-338,-22,-8396,48,-53,98,328,-1,4,-3,5168,187,71,26,144,0,6,0,0,0,0,0,0,-32329,0,0,0,2581,0,421685,0
421805,-412,-240,-8526,8,-77,48,329,3,0,0,5168,185,68,26,144,0,6,0,0,0,0,0,0,-32328,0,0,0,2581,0,421693,0
421815,-386,-272,-8436,-14,-83,27,327,-4,-2,0,5168,188,54,26,144,0,6,0,0,0,0,0,0,-32329,0,0,0,2581,0,421714,0
421825,-402,-80,-8280,-25,-83,7,328,1,3,-5,5168,189,49,26,144,0,6,0,0,0,0,0,0,-32329,0,0,0,2581,0,421732,0
421835,-386,126,-8214,-25,-68,-4,329,5,0,4,5160,191,59,26,144,0,6,0,0,0,0,0,0,-32329,0,0,0,2581,0,421737,0
421845,-358,526,-8148,-25,-6,-13,327,-4,2,0,5168,192,70,26,144,0,6,0,0,0,0,0,0,-32329,0,0,0,2581,0,421741,0
421855,-392,910,-8108,-15,36,-16,327,0,-5,2,5168,192,87,26,144,0,6,0,0,0,0,0,0,-32330,0,0,0,2581,0,421746,0
421865,-540,1386,-8232,7,64,-8,328,4,4,0,5160,191,89,26,144,0,6,0,0,0,0,0,0,-32328,0,0,0,2581,0,421758,0
421875,-590,1354,-8382,6,36,10,328,3,0,1,5168,192,85,26,144,0,6,0,0,0,0,0,0,-32329,0,0,0,2581,0,421763,0
421885,-578,892,-8416,-4,-12,35,328,-3,0,3,5168,190,93,26,144,0,6,0,0,0,0,0,0,-32329,0,0,0,2582,0,421776,0
421895,-514,486,-8452,3,-58,53,329,3,3,0,5168,185,47,26,144,0,6,0,0,0,0,0,0,-32328,0,0,0,2581,0,421783,0
