State time, Accel X, Accel Y, Accel Z, Gyro X, Gyro Y, Gyro Z, Encoder angle, Encoder velocity, Encoder acceleration, Motor voltage, Motor current, Battery voltage, Battery current, Ankle angle, Ankle vel, Percent Gait, Heelstrike Armed, Segmentation Trigger, Expected Duration, Current Command, Torque Command, Soft Sensor Time, Hip Soft Sensor, Knee Soft Sensor, MHE Percent Gait, 
 411275,88,-344,-8290,-15,-41,38,328,7,-1,0,-2,180,-59,2934,0,-1,0,0,-1,nan,nan,-1,-1,-1,-1,
 414655,138,-370,-8306,3,29,38,330,6,3,5168,3,179,-72,2935,0,-1,0,0,-1,400,56.0,81.61,81.61,82.06,-1,
 414665,154,-384,-8236,-15,-95,38,327,1,1,5160,-3,181,-60,2935,0,-1,0,0,-1,400,56.0,262.0,80.95,81.61,-1,
 414675,126,-372,-8268,-33,-136,47,327,2,2,5176,-1,179,-64,2936,0,-1,0,0,-1,400,56.0,577.0,80.62,81.73,-1,
 414685,50,-374,-8354,-26,-127,39,327,0,-2,5168,0,178,-42,2935,0,-1,0,0,-1,400,56.0,1007.0,79.97,81.39,-1,
 414695,90,-370,-8340,-16,-57,38,328,-1,1,5160,-8,174,-69,2935,0,-1,0,0,-1,400,56.0,1305.0,79.54,81.84,-1,
 414705,52,-372,-8292,-9,43,37,328,3,0,5168,1,176,-57,2935,0,-1,0,0,-1,400,56.0,1503.0,79.65,81.5,-1,
 414715,76,-382,-8324,-10,53,39,327,-2,-2,5168,-1,177,-87,2933,0,-1,0,0,-1,400,56.0,2381.0,79.86,81.95,-1,
 414725,100,-380,-8288,-6,-21,38,328,-4,-2,5168,0,177,-72,2935,0,-1,0,0,-1,400,56.0,2696.0,80.84,82.29,-1,
 414735,98,-352,-8248,-20,-82,40,329,8,0,5168,-3,176,-90,2936,0,-1,0,0,-1,400,56.0,2796.0,81.17,82.29,-1,
 414745,96,-368,-8292,-32,-113,45,328,2,4,5152,0,174,-71,2935,0,-1,0,0,-1,400,56.0,3044.0,81.17,82.18,-1,
 414755,70,-390,-8312,-29,-95,41,327,0,1,5168,2,176,-66,2935,0,-1,0,0,-1,400,56.0,3342.0,80.84,82.18,-1,
 414765,64,-382,-8304,-12,-22,41,327,-1,3,5160,1,180,-63,2936,0,-1,0,0,-1,400,56.0,3740.0,80.73,82.29,-1,
 414775,80,-374,-8288,-6,5,36,328,0,1,5160,3,180,-56,2935,0,-1,0,0,-1,400,56.0,3989.0,80.73,82.18,-1,
 414805,102,-376,-8262,-19,-59,38,327,0,-5,5168,-1,183,-26,2935,0,-1,0,0,-1,400,56.0,4503.0,80.95,82.18,-1,
 414815,90,-390,-8300,-18,-66,41,328,2,1,5168,0,184,-50,2935,0,-1,0,0,-1,400,56.0,4519.0,80.95,82.18,-1,
 414825,90,-360,-8300,-22,-64,38,328,1,3,5168,-1,179,-57,2934,0,-1,0,0,-1,400,56.0,4535.0,80.84,82.18,-1,
 414835,82,-382,-8292,-15,-51,37,328,0,2,5168,0,182,-63,2934,0,-1,0,0,-1,400,56.0,4552.0,80.95,82.18,-1,
 414865,106,-372,-8296,-16,-45,37,327,2,0,5168,-2,183,-43,2933,0,-1,0,0,-1,400,56.0,4568.0,80.95,82.18,-1,
 414875,96,-370,-8330,-24,-51,43,327,-1,0,5160,-1,178,-60,2935,0,-1,0,0,-1,400,56.0,4585.0,80.95,82.18,-1,
 414885,92,-354,-8286,-11,-43,45,327,0,-1,5168,1,176,-76,2933,0,-1,0,0,-1,400,56.0,4602.0,80.95,82.18,-1,
 414895,68,-348,-8300,-19,-33,37,328,2,-1,5160,0,178,-48,2935,0,-1,0,0,-1,400,56.0,4618.0,80.95,82.18,-1,
 414915,86,-378,-8300,-15,-46,38,329,2,2,5168,-1,183,-24,2935,0,-1,0,0,-1,400,56.0,4635.0,80.84,82.18,-1,
 414925,96,-386,-8316,-16,-47,42,329,5,4,5168,-2,180,-49,2934,0,-1,0,0,-1,400,56.0,4651.0,80.95,82.18,-1,
 414955,90,-368,-8300,-15,-33,41,328,0,3,5168,1,182,-49,2934,0,-1,0,0,-1,400,56.0,4667.0,80.95,82.18,-1,
 414965,86,-388,-8296,-14,-45,38,328,0,1,5168,-2,182,-41,2935,0,-1,0,0,-1,400,56.0,4685.0,80.95,82.18,-1,
 414975,88,-388,-8306,-14,-48,39,328,0,-1,5152,1,177,-47,2934,0,-1,0,0,-1,400,56.0,4701.0,80.95,82.29,-1,
 415005,72,-376,-8278,-16,-34,34,328,0,3,5184,-2,179,-82,2935,0,-1,0,0,-1,400,56.0,4734.0,80.95,82.29,-1,
 415035,66,-402,-8300,-18,-37,42,328,4,0,5168,3,186,-42,2935,0,-1,0,0,-1,400,56.0,4750.0,80.95,82.29,-1,
 415055,94,-382,-8298,-16,-37,43,328,0,-4,5168,0,183,4,2935,0,-1,0,0,-1,400,56.0,4768.0,80.84,82.18,-1,
 415075,86,-396,-8292,-15,-44,40,327,-1,-1,5160,0,181,-33,2934,0,-1,0,0,-1,400,56.0,4784.0,80.95,82.18,-1,
 415095,76,-358,-8304,-17,-37,39,329,0,4,5168,0,175,-76,2935,0,-1,0,0,-1,400,56.0,4801.0,80.84,82.29,-1,
 415105,76,-370,-8308,-14,-33,41,327,-1,-5,5168,3,175,-110,2935,0,-1,0,0,-1,400,56.0,4833.0,80.95,82.29,-1,
 415115,90,-362,-8304,-15,-35,41,329,3,3,5168,-1,178,-94,2935,0,-1,0,0,-1,400,56.0,4850.0,80.95,82.18,-1,
 415135,94,-350,-8294,-17,-35,40,328,-2,5,5176,-1,183,-57,2934,0,-1,0,0,-1,400,56.0,4867.0,80.95,82.29,-1,
 415155,110,-374,-8298,-17,-34,38,328,6,-2,5168,0,182,-50,2935,0,-1,0,0,-1,400,56.0,4884.0,80.84,82.18,-1,
 415175,82,-398,-8274,-10,-44,39,327,0,-1,5160,0,181,-29,2935,0,-1,0,0,-1,400,56.0,4900.0,80.95,82.18,-1,
 415195,102,-362,-8306,-15,-47,41,328,5,1,5168,1,182,-32,2934,0,-1,0,0,-1,400,56.0,4916.0,80.84,82.18,-1,
 415205,90,-364,-8298,-23,-43,39,328,1,-2,5168,-1,185,-48,2933,0,-1,0,0,-1,400,56.0,4933.0,80.84,82.18,-1,
 415225,76,-344,-8284,-20,-43,43,328,3,-6,5160,0,185,-47,2935,0,-1,0,0,-1,400,56.0,4950.0,80.84,82.29,-1,
 415245,92,-388,-8308,-15,-43,41,327,-2,-3,5168,-3,176,-34,2935,0,-1,0,0,-1,400,56.0,4966.0,80.95,82.29,-1,
 415255,72,-396,-8308,-19,-38,40,328,-4,-2,5160,1,182,-20,2935,0,-1,0,0,-1,400,56.0,4983.0,80.84,82.29,-1,
 415275,94,-390,-8284,-16,-31,36,327,-8,-2,5160,-3,183,0,2935,0,-1,0,0,-1,400,56.0,4999.0,80.95,82.29,-1,
 415285,62,-398,-8304,-14,-28,37,328,-1,-1,5160,1,182,2,2935,0,-1,0,0,-1,400,56.0,5016.0,80.95,82.29,-1,
 415315,98,-392,-8292,-16,-56,38,328,1,-1,5168,2,176,-44,2935,0,-1,0,0,-1,400,56.0,5032.0,80.95,82.18,-1,
 415325,102,-370,-8306,-14,-54,39,328,-1,2,5160,1,178,-41,2935,0,-1,0,0,-1,400,56.0,5049.0,80.95,82.29,-1,
 415355,110,-394,-8254,-13,-26,36,328,5,0,5160,-3,185,-44,2935,0,-1,0,0,-1,400,56.0,5066.0,81.06,82.18,-1,
 415365,80,-332,-8298,-21,-39,43,328,-1,2,5168,-2,188,-5,2935,0,-1,0,0,-1,400,56.0,5082.0,81.06,82.29,-1,
 415395,66,-352,-8308,-20,-41,40,328,-5,0,5160,-1,181,-50,2935,0,-1,0,0,-1,400,56.0,5099.0,81.06,82.29,-1,
 415415,108,-352,-8266,-19,-43,39,328,2,1,5168,-4,183,-5,2935,0,-1,0,0,-1,400,56.0,5115.0,81.06,82.29,-1,
 415425,82,-372,-8310,-13,-29,33,328,6,-7,5160,-2,182,-28,2935,0,-1,0,0,-1,400,56.0,5132.0,81.06,82.29,-1,
 415445,82,-368,-8272,-19,-29,42,328,3,1,5168,-1,181,-17,2934,0,-1,0,0,-1,400,56.0,5149.0,81.17,82.29,-1,
 415455,80,-366,-8326,-15,-30,38,329,0,4,5168,-2,181,-20,2934,0,-1,0,0,-1,400,56.0,5165.0,81.17,82.29,-1,
 415485,128,-372,-8320,-18,-42,38,329,8,-4,5168,-1,186,-41,2933,0,-1,0,0,-1,400,56.0,5198.0,81.17,82.29,-1,
 415495,94,-374,-8314,-16,-47,36,327,0,-2,5168,-1,182,-56,2934,0,-1,0,0,-1,400,56.0,5215.0,81.17,82.29,-1,
 415515,102,-384,-8300,-11,-30,37,329,11,-5,5168,-4,179,-84,2935,0,-1,0,0,-1,400,56.0,5232.0,81.17,82.29,-1,
 415525,58,-362,-8302,-11,-3,43,328,0,1,5168,-2,182,-94,2934,0,-1,0,0,-1,400,56.0,5248.0,81.17,82.29,-1,
 415535,88,-390,-8298,-7,3,37,328,4,0,5168,-3,179,-66,2935,0,-1,0,0,-1,400,56.0,5248.0,81.17,82.29,-1,
 415545,96,-382,-8282,-11,-7,39,327,-4,0,5168,-2,177,-58,2936,0,-1,0,0,-1,400,56.0,5264.0,81.17,82.18,-1,
 415565,96,-386,-8290,-13,-40,40,328,1,-1,5176,-2,181,-39,2935,0,-1,0,0,-1,400,56.0,5281.0,81.17,82.18,-1,
 415595,96,-370,-8274,-8,-33,42,328,0,1,5168,2,185,-27,2935,0,-1,0,0,-1,400,56.0,5297.0,81.17,82.29,-1,
 415615,108,-390,-8320,-9,-47,37,329,2,-1,5168,-1,182,-74,2935,0,-1,0,0,-1,400,56.0,5315.0,81.06,82.29,-1,
 415625,104,-426,-8280,-21,-58,34,328,5,1,5168,0,178,-117,2935,0,-1,0,0,-1,400,56.0,5347.0,80.95,82.18,-1,
 415645,106,-386,-8318,-18,-54,42,328,2,-2,5176,0,178,-96,2934,0,-1,0,0,-1,400,56.0,5364.0,80.95,82.18,-1,
 415655,86,-390,-8294,-19,-53,37,328,1,3,5168,2,183,-74,2935,0,-1,0,0,-1,400,56.0,5380.0,80.95,82.18,-1,
 415675,84,-378,-8298,-24,-55,42,328,4,0,5168,-2,181,-67,2934,0,-1,0,0,-1,400,56.0,5398.0,80.95,82.18,-1,
 415695,100,-388,-8304,-22,-56,46,328,0,-4,5168,-3,178,-50,2933,0,-1,0,0,-1,400,56.0,5414.0,80.84,82.18,-1,
 415715,108,-400,-8282,-18,-62,40,329,6,2,5168,1,181,-44,2935,0,-1,0,0,-1,400,56.0,5430.0,80.84,82.18,-1,
 415725,82,-390,-8310,-19,-43,37,328,0,3,5168,-2,182,-28,2934,0,-1,0,0,-1,400,56.0,5447.0,80.84,82.18,-1,
 415735,100,-382,-8300,-11,-38,42,328,2,-2,5168,3,183,-5,2935,0,-1,0,0,-1,400,56.0,5463.0,80.84,82.18,-1,
 415775,102,-384,-8326,-15,-42,38,328,0,-1,5168,2,182,-15,2935,0,-1,0,0,-1,400,56.0,5481.0,80.84,82.18,-1,
 415795,90,-358,-8288,-21,-40,44,328,-7,-2,5168,0,178,-91,2935,0,-1,0,0,-1,400,56.0,5497.0,80.95,82.29,-1,
 415815,90,-370,-8286,-20,-30,38,327,-4,-2,5160,-1,180,-73,2935,0,-1,0,0,-1,400,56.0,5513.0,80.95,82.18,-1,
 415825,88,-392,-8304,-9,-35,41,329,7,3,5168,2,185,-45,2935,0,-1,0,0,-1,400,56.0,5530.0,80.95,82.18,-1,
 415845,96,-372,-8302,-13,-33,39,328,10,3,5168,-4,181,-65,2934,0,-1,0,0,-1,400,56.0,5546.0,80.95,82.29,-1,
 415865,106,-378,-8306,-11,-24,40,327,-11,0,5176,-1,179,-55,2935,0,-1,0,0,-1,400,56.0,5563.0,80.95,82.29,-1,
 415885,88,-378,-8320,-14,-21,40,329,3,4,5168,-2,186,-37,2934,0,-1,0,0,-1,400,56.0,5580.0,80.95,82.29,-1,
 415915,110,-368,-8296,-14,-35,40,328,3,3,5168,-2,174,-103,2934,0,-1,0,0,-1,400,56.0,5613.0,80.95,82.29,-1,
 415925,82,-350,-8288,-12,-37,42,327,0,3,5168,-1,177,-100,2934,0,-1,0,0,-1,400,56.0,5629.0,80.84,82.29,-1,
 415935,100,-394,-8302,-16,-32,39,328,-1,3,5184,0,174,-101,2935,0,-1,0,0,-1,400,56.0,5645.0,80.95,82.29,-1,
 415955,82,-374,-8292,-17,-46,42,329,3,1,5168,0,180,-66,2934,0,-1,0,0,-1,400,56.0,5679.0,80.84,82.29,-1,
 415965,96,-376,-8282,-15,-40,41,327,-3,1,5160,-2,183,-83,2934,0,-1,0,0,-1,400,56.0,5712.0,80.84,82.29,-1,
 415975,88,-374,-8290,-19,-35,40,328,0,1,5168,2,181,-80,2935,0,-1,0,0,-1,400,56.0,5728.0,80.73,82.29,-1,
 415995,66,-384,-8300,-14,-32,42,327,-3,-1,5168,-4,182,-82,2934,0,-1,0,0,-1,400,56.0,5746.0,80.73,82.29,-1,
 416035,104,-414,-8296,-16,-77,34,329,3,1,5168,0,185,-72,2935,0,-1,0,0,-1,400,56.0,5762.0,80.73,82.29,-1,
 416055,110,-414,-8298,-17,-39,37,328,0,-3,5168,5,184,-14,2934,0,-1,0,0,-1,400,56.0,5779.0,80.73,82.29,-1,
 416075,108,-368,-8316,-15,-32,43,328,5,0,5176,-1,186,-13,2935,0,-1,0,0,-1,400,56.0,5795.0,80.84,82.29,-1,
 416105,102,-394,-8314,-16,-51,39,327,-7,-3,5168,1,180,-29,2935,0,-1,0,0,-1,400,56.0,5811.0,80.84,82.29,-1,
 416125,68,-370,-8302,-14,-32,41,329,6,5,5168,2,177,-35,2935,0,-1,0,0,-1,400,56.0,5828.0,80.84,82.29,-1,
 416135,76,-376,-8302,-15,-36,40,329,7,1,5168,1,179,-61,2935,0,-1,0,0,-1,400,56.0,5845.0,80.84,82.29,-1,
 416145,88,-370,-8286,-18,-41,43,328,0,3,5168,0,180,-84,2935,0,-1,0,0,-1,400,56.0,5861.0,80.84,82.29,-1,
 416165,92,-386,-8286,-15,-52,39,329,-4,5,5176,-1,179,-92,2933,0,-1,0,0,-1,400,56.0,5878.0,80.84,82.29,-1,
 416195,84,-378,-8306,-13,-34,39,329,6,0,5168,0,184,-31,2936,0,-1,0,0,-1,400,56.0,5894.0,80.95,82.29,-1,
 416215,102,-378,-8296,-23,-44,42,327,-5,-4,5168,-6,185,-34,2935,0,-1,0,0,-1,400,56.0,5911.0,80.95,82.29,-1,
 416235,80,-328,-8278,-19,-48,38,327,-3,-3,5168,0,180,-75,2935,0,-1,0,0,-1,400,56.0,5928.0,80.95,82.29,-1,
 416245,78,-382,-8304,-15,-32,41,328,0,2,5168,-3,178,-50,2935,0,-1,0,0,-1,400,56.0,5944.0,81.06,82.29,-1,
 416255,100,-390,-8290,-13,-33,41,329,3,2,5168,3,175,-59,2934,0,-1,0,0,-1,400,56.0,5961.0,81.06,82.29,-1,
 416275,74,-372,-8300,-19,-51,42,329,5,4,5168,1,175,-66,2935,0,-1,0,0,-1,400,56.0,6010.0,80.95,82.29,-1,
 416315,98,-378,-8300,-14,-28,35,329,4,-3,5176,-2,184,-36,2934,0,-1,0,0,-1,400,56.0,6027.0,80.95,82.29,-1,
 416335,90,-364,-8308,-13,-28,41,329,6,2,5168,0,182,-29,2935,0,-1,0,0,-1,400,56.0,6044.0,80.84,82.29,-1,
 416355,92,-378,-8314,-20,-46,39,328,2,2,5168,2,179,-20,2935,0,-1,0,0,-1,400,56.0,6060.0,80.84,82.29,-1,
 416385,88,-380,-8316,-18,-32,39,328,-3,-2,5168,1,180,-50,2935,0,-1,0,0,-1,400,56.0,6110.0,80.73,82.29,-1,
 416415,86,-392,-8320,-24,-47,39,327,-2,1,5168,-3,182,-28,2935,0,-1,0,0,-1,400,56.0,6127.0,80.73,82.29,-1,
 416445,104,-364,-8300,-19,-22,40,327,0,0,5168,-4,181,-48,2935,0,-1,0,0,-1,400,56.0,6143.0,80.73,82.29,-1,
 416455,82,-366,-8300,-13,-27,37,328,2,1,5168,1,181,-66,2935,0,-1,0,0,-1,400,56.0,6159.0,80.73,82.29,-1,
 416475,96,-380,-8276,-17,-45,41,328,-7,5,5168,0,183,-55,2935,0,-1,0,0,-1,400,56.0,6176.0,80.84,82.29,-1,
 416495,84,-394,-8300,-14,-45,39,327,-2,-3,5160,-2,173,-87,2935,0,-1,0,0,-1,400,56.0,6192.0,80.84,82.29,-1,
 416505,86,-350,-8300,-16,-31,42,327,1,-4,5168,-1,180,-69,2934,0,-1,0,0,-1,400,56.0,6210.0,80.73,82.29,-1,
 416525,88,-366,-8294,-18,-31,41,327,-5,2,5168,0,185,-55,2934,0,-1,0,0,-1,400,56.0,6226.0,80.73,82.29,-1,
 416535,88,-362,-8294,-15,-38,41,327,-5,-1,5168,-1,181,-78,2935,0,-1,0,0,-1,400,56.0,6242.0,80.73,82.29,-1,
 416545,106,-378,-8302,-15,-49,40,327,-8,2,5168,-1,181,-79,2934,0,-1,0,0,-1,400,56.0,6259.0,80.73,82.29,-1,
 416565,118,-396,-8292,-20,-37,41,329,1,0,5168,-1,177,-79,2934,0,-1,0,0,-1,400,56.0,6275.0,80.73,82.29,-1,
 416595,80,-382,-8296,-14,-41,40,328,0,-3,5168,0,181,-10,2934,0,-1,0,0,-1,400,56.0,6293.0,80.73,82.29,-1,
 416605,60,-366,-8312,-15,-35,39,327,2,1,5160,-2,181,-16,2935,0,-1,0,0,-1,400,56.0,6309.0,80.73,82.29,-1,
 416615,100,-382,-8310,-16,-32,38,328,-5,-2,5160,0,175,-36,2935,0,-1,0,0,-1,400,56.0,6342.0,80.73,82.18,-1,
 416635,92,-360,-8286,-21,-41,39,327,-7,-4,5168,0,181,-59,2935,0,-1,0,0,-1,400,56.0,6358.0,80.73,82.18,-1,
 416655,100,-382,-8264,-15,-49,39,329,5,-3,5168,3,181,-65,2936,0,-1,0,0,-1,400,56.0,6374.0,80.84,82.18,-1,
 416665,88,-394,-8316,-20,-40,40,328,-1,-4,5160,-1,179,-77,2935,0,-1,0,0,-1,400,56.0,6392.0,80.84,82.18,-1,
 416685,90,-378,-8294,-18,-41,40,329,-2,-4,5168,0,182,-77,2935,0,-1,0,0,-1,400,56.0,6408.0,80.84,82.18,-1,
 416705,88,-398,-8288,-17,-40,39,326,-7,-3,5168,2,180,-67,2935,0,-1,0,0,-1,400,56.0,6425.0,80.84,82.18,-1,
 416715,78,-398,-8310,-14,-39,43,327,-3,-4,5168,-5,179,-72,2935,0,-1,0,0,-1,400,56.0,6441.0,80.84,82.18,-1,
 416745,80,-402,-8304,-17,-37,41,328,3,2,5168,1,178,-70,2935,0,-1,0,0,-1,400,56.0,6457.0,80.84,82.18,-1,
 416765,112,-346,-8298,-10,-33,36,328,-1,0,5168,-3,184,-54,2934,0,-1,0,0,-1,400,56.0,6475.0,80.84,82.18,-1,
 416785,90,-404,-8306,-16,-30,44,327,-8,-6,5168,0,177,-68,2935,0,-1,0,0,-1,400,56.0,6491.0,80.95,82.18,-1,
 416805,92,-370,-8294,-19,-76,43,328,3,-1,5168,0,180,-79,2935,0,-1,0,0,-1,400,56.0,6508.0,80.95,82.29,-1,
 416825,68,-364,-8308,-15,-37,38,328,8,3,5168,0,183,-24,2934,0,-1,0,0,-1,400,56.0,6524.0,81.06,82.18,-1,
 416845,92,-374,-8300,-18,-16,41,328,1,0,5168,-1,185,8,2935,0,-1,0,0,-1,400,56.0,6540.0,81.06,82.18,-1,
 416865,110,-366,-8302,-23,-62,38,328,-5,1,5152,0,184,-42,2935,0,-1,0,0,-1,400,56.0,6574.0,81.28,82.29,-1,
 416885,60,-370,-8300,-16,-37,41,328,3,2,5160,-3,186,-48,2934,0,-1,0,0,-1,400,56.0,6640.0,81.17,82.29,-1,
 416905,72,-372,-8296,-8,3,36,327,-3,2,5160,-1,180,-49,2935,0,-1,0,0,-1,400,56.0,6657.0,81.17,82.29,-1,
 416955,84,-360,-8266,-10,-45,43,328,-3,1,5168,0,181,-56,2935,0,-1,0,0,-1,400,56.0,6673.0,81.17,82.29,-1,
 416965,60,-384,-8278,-17,-35,42,327,-1,-2,5160,-3,175,-86,2935,0,-1,0,0,-1,400,56.0,6690.0,81.06,82.18,-1,
 416975,104,-406,-8280,-17,-28,43,327,-1,-1,5168,-1,177,-112,2935,0,-1,0,0,-1,400,56.0,6706.0,81.06,82.18,-1,
 416985,112,-390,-8300,-14,-21,39,328,0,1,5168,0,176,-111,2935,0,-1,0,0,-1,400,56.0,6723.0,81.17,82.18,-1,
 416995,82,-392,-8262,-13,-30,39,329,3,1,5168,-2,178,-120,2936,0,-1,0,0,-1,400,56.0,6740.0,81.17,82.18,-1,
 417025,92,-410,-8284,-21,-70,39,328,0,2,5168,0,180,-74,2934,0,-1,0,0,-1,400,56.0,6756.0,81.17,82.18,-1,
 417055,90,-398,-8292,-18,-48,38,328,0,0,5168,1,179,-29,2935,0,-1,0,0,-1,400,56.0,6773.0,81.06,82.18,-1,
 417075,88,-378,-8300,-19,-39,38,328,1,-1,5168,-3,180,-77,2935,0,-1,0,0,-1,400,56.0,6806.0,81.06,82.18,-1,
 417115,100,-356,-8282,-16,-38,43,327,-6,-7,5168,-1,189,4,2935,0,-1,0,0,-1,400,56.0,6822.0,81.06,82.29,-1,
 417145,94,-376,-8298,-14,-43,43,327,0,-3,5168,-5,182,-28,2935,0,-1,0,0,-1,400,56.0,6839.0,81.06,82.18,-1,
 417165,106,-386,-8296,-12,-34,40,328,-2,0,5160,0,182,-64,2935,0,-1,0,0,-1,400,56.0,6872.0,81.06,82.18,-1,
 417185,76,-400,-8302,-16,-43,40,327,-3,-5,5160,-3,181,-65,2934,0,-1,0,0,-1,400,56.0,6889.0,81.06,82.18,-1,
 417195,88,-372,-8308,-16,-41,38,327,-5,1,5160,1,180,-32,2935,0,-1,0,0,-1,400,56.0,6905.0,81.17,82.18,-1,
 417205,70,-374,-8302,-24,-42,35,328,0,-3,5176,-1,179,-5,2934,0,-1,0,0,-1,400,56.0,6905.0,81.17,82.18,-1,
 417225,84,-388,-8290,-15,-39,38,329,1,1,5168,3,179,-34,2935,0,-1,0,0,-1,400,56.0,6921.0,81.17,82.18,-1,
 417235,108,-354,-8304,-18,-41,38,328,4,1,5168,0,178,-20,2933,0,-1,0,0,-1,400,56.0,6939.0,81.06,82.18,-1,
 417245,78,-344,-8326,-14,-39,40,327,-8,6,5160,0,180,-54,2935,0,-1,0,0,-1,400,56.0,6955.0,81.06,82.18,-1,
 417255,104,-384,-8294,-7,-39,40,328,1,0,5168,0,180,-37,2936,0,-1,0,0,-1,400,56.0,6971.0,81.06,82.18,-1,
 417265,74,-372,-8306,-16,-36,43,327,-7,-2,5160,-3,179,-62,2935,0,-1,0,0,-1,400,56.0,7004.0,81.06,82.18,-1,
 417285,116,-384,-8288,-18,-43,44,328,-6,-2,5168,-1,178,-88,2934,0,-1,0,0,-1,400,56.0,7038.0,81.17,82.18,-1,
 417355,72,-402,-8306,-20,-58,41,328,4,0,5168,1,178,-62,2935,0,-1,0,0,-1,400,56.0,7054.0,81.17,82.18,-1,
 417375,80,-384,-8326,-20,-32,40,328,0,2,5168,2,179,-69,2935,0,-1,0,0,-1,400,56.0,7071.0,81.17,82.18,-1,
 417385,94,-390,-8292,-16,-33,40,328,0,6,5168,0,176,-87,2933,0,-1,0,0,-1,400,56.0,7087.0,81.17,82.18,-1,
 417405,90,-372,-8324,-18,-43,41,327,-1,4,5168,2,176,-61,2935,0,-1,0,0,-1,400,56.0,7104.0,81.17,82.18,-1,
 417415,78,-388,-8306,-16,-45,38,328,-1,4,5168,-1,180,-56,2934,0,-1,0,0,-1,400,56.0,7121.0,81.17,82.18,-1,
 417425,74,-380,-8296,-18,-39,39,328,-1,0,5168,-3,180,-49,2935,0,-1,0,0,-1,400,56.0,7137.0,81.06,82.18,-1,
 417435,116,-356,-8288,-19,-37,38,329,0,-2,5160,3,178,-40,2935,0,-1,0,0,-1,400,56.0,7154.0,81.17,82.18,-1,
 417475,74,-396,-8296,-18,-41,41,328,-3,0,5168,-2,185,-52,2935,0,-1,0,0,-1,400,56.0,7170.0,81.06,82.18,-1,
 417505,84,-380,-8292,-18,-38,44,328,2,0,5168,-1,179,-21,2935,0,-1,0,0,-1,400,56.0,7204.0,81.06,82.18,-1,
 417525,80,-354,-8306,-20,-47,43,327,-2,2,5160,2,179,-64,2935,0,-1,0,0,-1,400,56.0,7220.0,81.06,82.18,-1,
 417535,74,-390,-8280,-20,-40,36,327,-4,0,5168,3,176,-54,2936,0,-1,0,0,-1,400,56.0,7237.0,81.06,82.18,-1,
 417545,100,-408,-8302,-13,-37,38,328,3,2,5160,0,175,-75,2934,0,-1,0,0,-1,400,56.0,7269.0,81.06,82.18,-1,
 417565,84,-374,-8306,-15,-39,41,328,-3,-2,5168,-2,180,-57,2935,0,-1,0,0,-1,400,56.0,7286.0,81.06,82.18,-1,
 417605,70,-408,-8316,-20,-35,42,328,0,-2,5168,-1,179,-75,2935,0,-1,0,0,-1,400,56.0,7303.0,81.06,82.18,-1,
 417615,90,-374,-8310,-19,-35,38,328,2,3,5168,0,183,-54,2935,0,-1,0,0,-1,400,56.0,7320.0,81.17,82.18,-1,
 417635,74,-386,-8266,-19,-46,40,328,1,-1,5168,-1,180,-38,2935,0,-1,0,0,-1,400,56.0,7336.0,81.39,82.18,-1,
 417655,78,-368,-8278,-13,-45,45,328,-7,-2,5168,-1,180,-30,2935,0,-1,0,0,-1,400,56.0,7352.0,81.61,82.18,-1,
 417675,68,-378,-8334,-17,-42,41,328,-8,-7,5160,2,182,-15,2935,0,-1,0,0,-1,400,56.0,7369.0,81.73,82.18,-1,
 417685,116,-368,-8306,-14,-41,41,328,0,-1,5168,0,180,-48,2935,0,-1,0,0,-1,400,56.0,7386.0,81.84,82.18,-1,
 417705,82,-376,-8310,-16,-41,38,329,3,7,5168,6,179,-28,2935,0,-1,0,0,-1,400,56.0,7403.0,81.84,82.18,-1,
 417735,80,-346,-8280,-18,-38,41,328,2,-2,5168,0,184,-38,2936,0,-1,0,0,-1,400,56.0,7435.0,81.84,82.18,-1,
 417755,70,-384,-8316,-13,-44,39,329,1,1,5160,-1,185,-56,2935,0,-1,0,0,-1,400,56.0,7452.0,81.84,82.18,-1,
 417785,104,-370,-8300,-18,-36,38,327,-6,-2,5168,0,182,-21,2934,0,-1,0,0,-1,400,56.0,7486.0,81.73,82.18,-1,
 417795,80,-370,-8318,-18,-40,44,328,-2,-5,5160,0,179,-18,2935,0,-1,0,0,-1,400,56.0,7502.0,81.73,82.18,-1,
 417805,96,-352,-8292,-12,-44,40,328,6,-3,5168,0,180,-36,2935,0,-1,0,0,-1,400,56.0,7518.0,81.73,82.18,-1,
 417835,88,-382,-8296,-15,-42,37,328,0,3,5168,0,187,-51,2934,0,-1,0,0,-1,400,56.0,7535.0,81.84,82.18,-1,
 417855,64,-356,-8316,-15,-40,36,328,0,4,5168,0,182,-49,2935,0,-1,0,0,-1,400,56.0,7551.0,81.84,82.18,-1,
 417865,86,-362,-8312,-16,-48,40,328,3,4,5168,-1,180,-39,2935,0,-1,0,0,-1,400,56.0,7568.0,81.73,82.18,-1,
 417885,82,-350,-8288,-13,-40,37,326,0,-8,5160,3,180,-39,2935,0,-1,0,0,-1,400,56.0,7585.0,81.73,82.18,-1,
 417905,92,-392,-8310,-18,-44,40,327,0,1,5160,1,181,-7,2935,0,-1,0,0,-1,400,56.0,7601.0,81.73,82.18,-1,
 417915,70,-360,-8314,-22,-42,40,328,1,-3,5168,-1,184,2,2934,0,-1,0,0,-1,400,56.0,7618.0,81.61,82.18,-1,
 417925,72,-368,-8308,-17,-47,40,328,-1,-2,5160,1,183,33,2935,0,-1,0,0,-1,400,56.0,7634.0,81.5,82.18,-1,
 417935,96,-384,-8290,-14,-45,37,327,-4,-2,5168,2,185,42,2935,0,-1,0,0,-1,400,56.0,7651.0,81.5,82.18,-1,
 417965,-18,-368,-8282,-18,-36,31,326,-4,-4,5168,0,188,92,2935,0,-1,0,0,-1,400,56.0,7668.0,81.39,82.18,-1,
 417985,84,-390,-8278,-17,-63,38,328,0,-4,5176,-1,189,103,2935,0,-1,0,0,-1,400,56.0,7684.0,81.28,82.18,-1,
 418005,108,-360,-8314,-13,-44,36,327,4,-1,5152,-2,185,103,2934,0,-1,0,0,-1,400,56.0,7701.0,81.17,82.18,-1,
 418025,84,-366,-8318,-17,-37,30,328,-1,3,5160,2,188,41,2935,0,-1,0,0,-1,400,56.0,7717.0,81.06,82.18,-1,
 418035,90,-398,-8296,-19,-39,34,328,3,-5,5176,2,186,19,2935,0,-1,0,0,-1,400,56.0,7734.0,80.95,82.18,-1,
 418055,82,-394,-8310,-19,-51,39,329,-5,1,5160,3,184,45,2935,0,-1,0,0,-1,400,56.0,7751.0,80.84,82.29,-1,
 418065,78,-402,-8302,-19,-34,33,328,4,-1,5168,-3,187,69,2935,0,-1,0,0,-1,400,56.0,7767.0,80.95,82.29,-1,
 418075,80,-354,-8298,-11,-23,38,328,-3,1,5160,1,188,60,2935,0,-1,0,0,-1,400,56.0,7784.0,80.95,82.29,-1,
 418105,92,-408,-8298,-13,-63,35,327,-3,-2,5152,4,182,62,2935,0,-1,0,0,-1,400,56.0,7800.0,81.06,82.18,-1,
 418115,82,-382,-8280,-21,-44,43,327,-4,-4,5160,-1,181,52,2935,0,-1,0,0,-1,400,56.0,7816.0,81.06,82.4,-1,
 418125,88,-374,-8308,-14,-26,39,327,-2,-1,5168,2,188,62,2935,0,-1,0,0,-1,400,56.0,7834.0,81.06,82.4,-1,
 418155,88,-378,-8296,-11,-32,40,327,-1,0,5168,0,183,84,2935,0,-1,0,0,-1,400,56.0,7850.0,81.06,82.29,-1,
 418165,94,-400,-8290,-16,-36,41,328,1,0,5168,-5,187,83,2935,0,-1,0,0,-1,400,56.0,7866.0,81.06,82.4,-1,
 418175,68,-396,-8312,-10,-25,37,328,-4,0,5160,-2,189,106,2934,0,-1,0,0,-1,400,56.0,7883.0,80.95,82.4,-1,
 418185,50,-418,-8338,16,46,34,328,0,-2,5168,-2,188,81,2935,0,-1,0,0,-1,400,56.0,7916.0,81.06,82.4,-1,
 418215,160,-348,-8284,92,209,40,328,2,-1,5160,-4,182,26,2935,0,-1,0,0,-1,400,56.0,7933.0,81.06,82.4,-1,
 418235,90,-544,-8222,-86,263,-33,328,7,0,5168,-2,185,39,2935,0,-1,0,0,-1,400,56.0,7949.0,81.06,82.4,-1,
 418255,94,-410,-8480,-41,-72,-76,328,7,7,5160,0,187,100,2935,0,-1,0,0,-1,400,56.0,7966.0,81.06,82.4,-1,
 418285,14,-438,-8152,-38,-297,-160,328,-5,-2,5160,0,183,12,2935,0,-1,0,0,-1,400,56.0,7982.0,81.06,82.4,-1,
 418295,-22,-380,-8522,-12,-76,-192,328,0,2,5168,2,177,15,2935,0,-1,0,0,-1,400,56.0,7999.0,81.06,82.4,-1,
 418315,60,-420,-8416,-6,88,-179,328,3,7,5168,-5,185,38,2934,0,-1,0,0,-1,400,56.0,8015.0,81.06,82.4,-1,
 418335,226,-376,-8334,-22,-52,-137,328,-5,0,5168,0,191,41,2935,0,-1,0,0,-1,400,56.0,8032.0,81.06,82.4,-1,
 418355,292,-392,-8318,-23,-114,-15,327,-1,1,5168,2,189,52,2935,0,-1,0,0,-1,400,56.0,8049.0,81.06,82.4,-1,
 418365,216,-366,-8324,-9,-38,50,328,0,1,5168,-2,187,51,2935,0,-1,0,0,-1,400,56.0,8065.0,81.06,82.4,-1,
 418385,90,-380,-8320,-16,90,59,327,0,0,5168,-3,187,55,2934,0,-1,0,0,-1,400,56.0,8081.0,81.06,82.29,-1,
 418395,114,-264,-8254,-16,74,82,329,3,5,5168,-2,188,58,2935,0,-1,0,0,-1,400,56.0,8098.0,81.06,82.29,-1,
 418415,92,-370,-8282,-21,-61,89,328,-1,-3,5168,-3,188,33,2934,0,-1,0,0,-1,400,56.0,8114.0,81.06,82.4,-1,
 418435,106,-288,-8288,-4,-138,-36,328,1,0,5160,2,185,32,2935,0,-1,0,0,-1,400,56.0,8131.0,81.06,82.4,-1,
 418445,108,-256,-8292,-15,-112,-125,328,6,-5,5168,-3,185,47,2935,0,-1,0,0,-1,400,56.0,8148.0,81.06,82.4,-1,
 418465,144,-292,-8278,-18,46,-237,328,4,5,5176,-5,186,51,2935,0,-1,0,0,-1,400,56.0,8164.0,81.06,82.4,-1,
 418475,222,-418,-8338,-19,112,-254,327,-3,-5,5168,0,189,66,2935,0,-1,0,0,-1,400,56.0,8181.0,81.06,82.4,-1,
 418505,1070,-232,-8202,-43,108,267,327,-1,-3,5168,0,190,32,2935,0,-1,0,0,-1,400,56.0,8197.0,81.17,82.4,-1,
 418515,1750,14,-8090,-87,121,503,326,-9,-3,5176,-4,189,62,2935,0,-1,0,0,-1,400,56.0,8214.0,81.17,82.52,-1,
 418535,2958,118,-9144,-441,-161,1361,328,0,4,5160,-2,188,70,2937,0,-1,0,0,-1,400,56.0,8231.0,81.17,82.4,-1,
 418545,484,-618,-8694,101,192,1109,327,-7,1,5168,0,188,59,2936,0,-1,0,0,-1,400,56.0,8247.0,81.17,82.4,-1,
 418555,690,-930,-8174,96,323,1033,329,3,-3,5168,0,190,54,2937,0,-1,0,0,-1,400,56.0,8297.0,81.17,82.4,-1,
 418585,276,-944,-9212,-361,-1192,311,328,-1,-2,5168,-2,193,60,2937,0,-1,0,0,-1,400,56.0,8313.0,81.28,82.4,-1,
 418625,120,-444,-8216,39,205,-10,328,-2,-3,5168,-3,186,63,2936,0,-1,0,0,-1,400,56.0,8330.0,81.28,82.4,-1,
 418645,288,-608,-8288,23,-2,-34,327,-3,1,5168,1,185,75,2936,0,-1,0,0,-1,400,56.0,8347.0,81.28,82.4,-1,
 418665,38,228,-8246,-7,67,24,328,3,-1,5168,2,186,61,2936,0,-1,0,0,-1,400,56.0,8363.0,81.28,82.4,-1,
 418675,24,386,-8318,-18,31,40,328,-1,-4,5168,1,185,48,2935,0,-1,0,0,-1,400,56.0,8379.0,81.28,82.4,-1,
 418695,22,-344,-8396,-24,-58,45,329,3,-1,5168,2,185,72,2936,0,-1,0,0,-1,400,56.0,8396.0,81.39,82.4,-1,
 418715,30,-330,-8302,29,221,32,328,1,4,5168,-1,188,42,2935,0,-1,0,0,-1,400,56.0,8412.0,81.39,82.4,-1,
 418735,86,-346,-8298,12,117,26,328,1,0,5168,-1,186,45,2935,0,-1,0,0,-1,400,56.0,8430.0,81.39,82.4,-1,
 418745,64,-332,-8330,14,66,18,328,8,0,5168,-2,185,65,2935,0,-1,0,0,-1,400,56.0,8446.0,81.39,82.4,-1,
 418755,30,-388,-8340,14,104,20,328,3,3,5168,4,188,87,2935,0,-1,0,0,-1,400,56.0,8446.0,81.39,82.4,-1,
 418765,-2,-424,-8286,4,31,28,328,7,-2,5168,0,190,94,2933,0,-1,0,0,-1,400,56.0,8462.0,81.39,82.4,-1,
 418785,238,-314,-8216,-33,-54,22,326,-7,-10,5160,0,187,64,2933,0,-1,0,0,-1,400,56.0,8479.0,81.39,82.4,-1,
 418795,102,-342,-8278,-43,-64,29,327,-9,-3,5168,3,185,63,2933,0,-1,0,0,-1,400,56.0,8495.0,81.39,82.52,-1,
 418805,2,-374,-8274,-43,-137,67,328,6,-3,5168,0,184,53,2934,0,-1,0,0,-1,400,56.0,8512.0,81.28,82.52,-1,
 418815,-94,-290,-8270,-45,-217,94,326,-8,1,5160,-1,185,78,2932,0,-1,0,0,-1,400,56.0,8529.0,81.28,82.52,-1,
 418825,-90,-250,-8362,-46,-325,133,327,-4,1,5168,-3,184,65,2933,0,-1,0,0,-1,400,56.0,8562.0,81.28,82.52,-1,
 418855,284,-326,-8306,-29,-65,88,327,0,-3,5168,1,188,42,2933,0,-1,0,0,-1,400,56.0,8578.0,81.28,82.52,-1,
 418885,442,-244,-8406,-131,-503,-3,327,-3,-1,5168,0,187,39,2933,0,-1,0,0,-1,400,56.0,8595.0,81.28,82.52,-1,
 418915,-478,-238,-8368,-15,-102,-10,328,2,-5,5168,0,186,79,2934,0,-1,0,0,-1,400,56.0,8612.0,81.28,82.52,-1,
 418925,-104,-332,-8346,-5,-108,29,328,1,0,5168,2,186,49,2933,0,-1,0,0,-1,400,56.0,8628.0,81.28,82.4,-1,
 418945,-42,-290,-8292,14,49,-9,329,3,2,5168,0,195,65,2933,0,-1,0,0,-1,400,56.0,8645.0,81.28,82.4,-1,
 418965,-12,-322,-8346,36,31,2,327,-4,-1,5168,-1,185,45,2933,0,-1,0,0,-1,400,56.0,8661.0,81.17,82.4,-1,
 418975,-96,-312,-8356,48,55,-35,327,-5,-4,5168,0,188,49,2933,0,-1,0,0,-1,400,56.0,8677.0,81.17,82.29,-1,
 418995,-14,-328,-8404,98,275,-112,328,-1,1,5168,0,190,69,2933,0,-1,0,0,-1,400,56.0,8694.0,81.17,82.29,-1,
 419005,12,-328,-8414,157,369,-116,327,1,-2,5168,2,189,65,2934,0,-1,0,0,-1,400,56.0,8711.0,81.17,82.29,-1,
 419015,72,-366,-8312,175,379,-110,328,4,1,5168,2,192,49,2934,0,-1,0,0,-1,400,56.0,8728.0,81.17,82.29,-1,
 419045,334,-368,-8180,6,-104,26,327,1,-2,5168,-2,187,52,2933,0,-1,0,0,-1,400,56.0,8744.0,81.06,82.29,-1,
 419065,100,-374,-8336,-27,-274,41,328,6,3,5160,-1,189,61,2933,0,-1,0,0,-1,400,56.0,8760.0,81.06,82.29,-1,
 419075,62,-364,-8336,-22,-184,35,327,-3,0,5168,0,189,83,2933,0,-1,0,0,-1,400,56.0,8777.0,81.06,82.29,-1,
 419095,6,-356,-8322,3,91,26,327,0,-2,5176,1,185,87,2933,0,-1,0,0,-1,400,56.0,8794.0,81.06,82.29,-1,
 419115,78,-388,-8270,-2,19,14,328,-1,0,5168,-2,187,74,2933,0,-1,0,0,-1,400,56.0,8811.0,81.06,82.18,-1,
 419135,116,-344,-8258,-25,-107,27,328,0,4,5160,-1,189,54,2933,0,-1,0,0,-1,400,56.0,8827.0,81.06,82.18,-1,
 419145,118,-372,-8294,-33,-116,26,328,2,2,5168,-3,187,61,2934,0,-1,0,0,-1,400,56.0,8843.0,81.06,82.18,-1,
 419165,82,-400,-8294,-16,-54,29,328,9,-1,5168,-1,188,53,2933,0,-1,0,0,-1,400,56.0,8860.0,81.06,82.18,-1,
 419185,46,-362,-8288,3,28,14,328,1,4,5168,-1,188,42,2934,0,-1,0,0,-1,400,56.0,8894.0,81.17,82.29,-1,
 419205,82,-372,-8280,-13,-17,-15,329,3,1,5168,0,189,58,2933,0,-1,0,0,-1,400,56.0,8910.0,81.17,82.29,-1,
 419225,120,-360,-8286,-16,-76,-3,327,-1,0,5168,1,187,22,2933,0,-1,0,0,-1,400,56.0,8926.0,81.06,82.29,-1,
 419235,76,-366,-8290,-18,-82,4,328,5,5,5168,1,188,54,2934,0,-1,0,0,-1,400,56.0,8943.0,80.95,82.29,-1,
 419255,84,-372,-8316,-18,-19,11,328,2,-2,5168,0,188,66,2933,0,-1,0,0,-1,400,56.0,8959.0,80.84,82.29,-1,
 419265,108,-386,-8300,-12,-16,27,328,0,0,5160,-1,188,52,2934,0,-1,0,0,-1,400,56.0,8993.0,80.84,82.18,-1,
 419315,90,-352,-8270,-16,-47,37,326,-12,-2,5160,-2,189,52,2934,0,-1,0,0,-1,400,56.0,9009.0,80.95,82.29,-1,
 419325,38,-330,-8280,-17,-40,37,328,-2,2,5168,0,191,58,2934,0,-1,0,0,-1,400,56.0,9026.0,80.84,82.29,-1,
 419345,92,-372,-8294,-17,-32,35,329,2,-1,5160,-3,184,48,2933,0,-1,0,0,-1,400,56.0,9042.0,80.73,82.06,-1,
 419355,96,-388,-8290,-16,-37,33,328,0,-2,5168,2,185,44,2933,0,-1,0,0,-1,400,56.0,9058.0,80.73,82.06,-1,
 419365,92,-376,-8268,-15,-39,39,328,4,-2,5160,0,189,56,2934,0,-1,0,0,-1,400,56.0,9076.0,80.62,82.06,-1,
 419395,84,-390,-8294,-16,-41,40,327,-4,-5,5168,3,189,69,2933,0,-1,0,0,-1,400,56.0,9092.0,80.62,82.06,-1,
 419405,64,-340,-8296,-18,-41,39,328,-1,1,5168,1,188,62,2933,0,-1,0,0,-1,400,56.0,9109.0,80.73,82.29,-1,
 419425,90,-386,-8302,-13,-38,40,327,0,-2,5168,3,189,33,2933,0,-1,0,0,-1,400,56.0,9125.0,80.84,82.29,-1,
 419445,94,-370,-8304,-17,-39,36,328,6,5,5168,0,187,46,2933,0,-1,0,0,-1,400,56.0,9141.0,81.06,82.4,-1,
 419465,54,-420,-8448,31,-19,31,328,1,0,5152,-1,186,56,2933,0,-1,0,0,-1,400,56.0,9192.0,81.28,82.52,-1,
 419485,80,-406,-8216,-15,78,36,327,-5,0,5168,0,187,59,2934,0,-1,0,0,-1,400,56.0,9208.0,81.5,82.52,-1,
 419525,110,-360,-8372,38,-117,40,328,0,5,5168,-2,186,27,2933,0,-1,0,0,-1,400,56.0,9224.0,81.17,82.4,-1,
 419535,50,-390,-8326,66,-76,33,327,-5,0,5168,1,185,51,2933,0,-1,0,0,-1,400,56.0,9241.0,81.17,82.4,-1,
 419555,122,-380,-8204,-22,163,29,328,7,1,5168,2,185,55,2933,0,-1,0,0,-1,400,56.0,9257.0,81.28,82.52,-1,
 419565,114,-368,-8440,25,143,42,328,-4,0,5152,-5,187,52,2933,0,-1,0,0,-1,400,56.0,9274.0,81.17,82.52,-1,
 419595,194,-418,-8280,8,-23,71,327,-4,1,5168,-2,194,83,2933,0,-1,0,0,-1,400,56.0,9291.0,81.06,82.52,-1,
 419615,48,-372,-8306,-17,116,75,328,-2,2,5152,-3,187,52,2934,0,-1,0,0,-1,400,56.0,9307.0,81.06,82.52,-1,
 419625,162,-422,-8240,-31,-142,61,328,9,4,5168,-4,186,40,2934,0,-1,0,0,-1,400,56.0,9324.0,81.06,82.52,-1,
 419645,112,-366,-8310,-23,-148,50,326,-5,2,5160,0,190,54,2933,0,-1,0,0,-1,400,56.0,9340.0,81.17,82.52,-1,
 419655,48,-464,-8376,-14,-82,43,329,3,-1,5168,2,191,52,2933,0,-1,0,0,-1,400,56.0,9357.0,81.17,82.52,-1,
 419675,56,-418,-8322,-28,-47,61,328,5,1,5168,3,186,35,2933,0,-1,0,0,-1,400,56.0,9374.0,81.17,82.52,-1,
 419695,186,-398,-8294,-21,-79,40,327,-1,1,5160,4,184,37,2933,0,-1,0,0,-1,400,56.0,9390.0,81.28,82.52,-1,
 419705,124,-406,-8286,-16,-87,35,328,-7,-3,5160,4,183,38,2933,0,-1,0,0,-1,400,56.0,9407.0,81.28,82.52,-1,
 419715,60,-366,-8248,-40,-132,14,327,-3,2,5152,-3,184,51,2933,0,-1,0,0,-1,400,56.0,9423.0,81.28,82.52,-1,
 419745,6,-276,-8302,-70,-253,-194,327,5,-3,5160,-5,188,28,2933,0,-1,0,0,-1,400,56.0,9439.0,81.39,82.52,-1,
 419765,-106,-356,-8334,5,5,-445,329,4,3,5160,0,187,52,2934,0,-1,0,0,-1,400,56.0,9473.0,81.5,82.52,-1,
 419785,168,-572,-8214,-50,126,-338,328,0,2,5168,-3,186,58,2933,0,-1,0,0,-1,400,56.0,9489.0,81.39,82.52,-1,
 419805,520,-352,-8346,-37,0,-56,326,-6,-4,5168,1,187,60,2933,0,-1,0,0,-1,400,56.0,9506.0,81.39,82.52,-1,
 419815,388,-388,-8296,-21,-103,56,327,-2,0,5160,-1,185,55,2933,0,-1,0,0,-1,400,56.0,9522.0,81.39,82.52,-1,
 419855,94,-372,-8292,-19,-64,20,328,0,4,5168,1,187,58,2933,0,-1,0,0,-1,400,56.0,9556.0,81.28,82.63,-1,
 419865,78,-394,-8324,-1,42,46,328,5,0,5160,-3,189,52,2933,0,-1,0,0,-1,400,56.0,9556.0,81.28,82.63,-1,
 419875,112,-366,-8336,6,107,62,328,5,0,5168,-2,191,49,2933,0,-1,0,0,-1,400,56.0,9572.0,81.28,82.63,-1,
 419885,-26,-366,-8256,26,118,83,328,5,2,5168,3,190,41,2933,0,-1,0,0,-1,400,56.0,9589.0,81.28,82.63,-1,
 419905,92,-356,-8380,-22,-248,30,328,1,4,5168,1,188,54,2933,0,-1,0,0,-1,400,56.0,9605.0,81.28,82.75,-1,
 419925,104,-346,-8236,-25,-148,-26,328,3,1,5168,0,188,76,2933,0,-1,0,0,-1,400,56.0,9622.0,81.28,82.75,-1,
 419935,242,-310,-8204,-40,-67,-118,328,2,3,5168,2,187,62,2934,0,-1,0,0,-1,400,56.0,9639.0,81.28,82.75,-1,
 419955,152,-348,-8324,-13,-29,-331,328,0,0,5168,0,186,37,2933,0,-1,0,0,-1,400,56.0,9655.0,81.28,82.75,-1,
 419975,-90,-324,-8244,2,-73,-293,328,0,-2,5176,-1,185,73,2933,0,-1,0,0,-1,400,56.0,9672.0,81.28,82.86,-1,
 419985,70,-512,-8208,-80,-134,-208,327,-6,-2,5168,1,189,81,2933,0,-1,0,0,-1,400,56.0,9688.0,81.39,82.86,-1,
 420005,376,-416,-8404,-69,-188,-152,329,5,8,5168,2,188,58,2933,0,-1,0,0,-1,400,56.0,9705.0,81.39,82.86,-1,
 420025,538,-466,-8222,-57,-105,-300,327,-2,-1,5168,2,187,47,2933,0,-1,0,0,-1,400,56.0,9722.0,81.39,82.86,-1,
 420055,32,-378,-8344,-119,-240,-283,327,-4,-2,5168,0,189,90,2934,0,-1,0,0,-1,400,56.0,9755.0,81.5,82.86,-1,
 420075,-724,-142,-8364,-145,-261,-151,328,3,3,5168,0,188,63,2934,0,-1,0,0,-1,400,56.0,9771.0,81.61,82.86,-1,
 420085,-532,-112,-8326,-225,-462,-41,328,0,1,5168,-2,188,62,2936,0,-1,0,0,-1,400,56.0,9787.0,81.61,82.86,-1,
 420095,-312,-208,-8518,-277,-616,14,327,-7,-2,5160,1,188,74,2935,0,-1,0,0,-1,400,56.0,9821.0,81.61,82.86,-1,
 420105,-194,-250,-8862,-295,-880,138,328,-6,-3,5168,1,188,75,2935,0,-1,0,0,-1,400,56.0,9838.0,81.5,82.86,-1,
 420115,-692,-276,-8658,-303,-1024,329,328,-5,-2,5168,0,191,68,2935,0,-1,0,0,-1,400,56.0,9854.0,81.5,82.86,-1,
 420125,-1248,-470,-8554,-358,-1357,772,328,1,-2,5168,-1,191,48,2935,0,-1,0,0,-1,400,56.0,9870.0,81.5,82.86,-1,
 420145,-808,-218,-8458,-380,-1178,1252,327,-3,-1,5160,0,183,45,2935,0,-1,0,0,-1,400,56.0,9887.0,81.5,82.86,-1,
 420185,1586,-860,-8056,-124,-108,-29,327,-1,1,5168,0,187,77,2936,0,-1,0,0,-1,400,56.0,9904.0,81.5,82.86,-1,
 420225,-1158,-100,-8236,64,339,222,327,-7,-1,5152,1,190,86,2935,0,-1,0,0,-1,400,56.0,9921.0,81.5,82.86,-1,
 420235,-932,186,-8646,5,92,215,328,7,3,5168,1,188,78,2935,0,-1,0,0,-1,400,56.0,9937.0,81.5,82.86,-1,
 420255,-88,-182,-8152,4,54,170,328,1,-2,5168,4,188,77,2935,0,-1,0,0,-1,400,56.0,9953.0,81.5,82.86,-1,
 420265,-86,-102,-8398,-21,-38,145,329,9,2,5168,1,188,93,2935,0,-1,0,0,-1,400,56.0,9970.0,81.5,82.86,-1,
 420275,116,-108,-8350,-43,-75,90,328,-2,1,5160,0,186,61,2935,0,-1,0,0,-1,400,56.0,9970.0,81.5,82.86,-1,
 420285,468,140,-8430,-102,-164,-34,327,0,1,5168,-4,187,74,2935,0,-1,0,0,-1,400,56.0,9986.0,81.5,82.86,-1,
 420295,538,192,-8370,-144,-236,-106,327,-5,-2,5168,-4,188,80,2935,0,-1,0,0,-1,400,56.0,10004.0,81.5,82.86,-1,
 420305,34,106,-8522,-243,-396,-171,328,2,4,5168,4,189,82,2935,0,-1,0,0,-1,400,56.0,10020.0,81.61,82.75,-1,
 420335,-538,20,-8242,-429,-1324,120,328,3,-1,5168,-2,190,70,2937,0,-1,0,0,-1,400,56.0,10036.0,81.73,82.86,-1,
 420345,214,-974,-7934,-196,-414,177,328,1,-3,5168,-1,190,79,2937,0,-1,0,0,-1,400,56.0,10053.0,81.95,82.86,-1,
 420365,-726,-1360,-7654,-3,107,221,328,0,0,5160,-5,188,114,2937,0,-1,0,0,-1,400,56.0,10069.0,82.06,82.86,-1,
 420385,-910,72,-8568,45,91,153,328,4,2,5168,4,187,71,2936,0,-1,0,0,-1,400,56.0,10086.0,82.4,82.86,-1,
 420405,-1498,114,-8370,29,-7,254,329,8,0,5168,1,185,48,2936,0,-1,0,0,-1,400,56.0,10103.0,82.63,82.86,-1,
 420415,-2180,-542,-8104,13,32,117,326,-9,-3,5168,0,186,58,2936,0,-1,0,0,-1,400,56.0,10119.0,82.75,82.86,-1,
 420425,-142,-192,-8674,-22,167,111,328,2,2,5160,0,187,45,2935,0,-1,0,0,-1,400,56.0,10136.0,83.09,82.75,-1,
 420445,614,-434,-8460,-34,17,-37,328,-6,4,5160,-2,185,76,2922,-1,-1,0,0,-1,400,56.0,10153.0,83.56,82.75,-1,
 420465,-280,-350,-8712,-109,-36,-221,328,4,-2,5168,-1,185,63,2884,-2,-1,0,0,-1,400,56.0,10169.0,83.91,82.75,-1,
 420485,-864,-312,-8268,-137,-22,-247,327,-8,0,5168,0,184,47,2848,-1,-1,0,0,-1,400,56.0,10186.0,84.39,82.75,-1,
 420495,-876,-708,-8068,-117,-28,-195,328,1,0,5168,1,183,45,2832,-1,-1,0,0,-1,400,56.0,10202.0,84.99,82.63,-1,
 420525,-982,-1336,-8372,-85,-22,68,328,0,0,5160,-1,187,33,2796,0,-1,0,0,-1,400,56.0,10219.0,85.72,82.63,-1,
 420535,546,3646,-11880,74,689,160,327,-10,1,5168,-2,185,46,2786,-1,-1,0,0,-1,400,56.0,10236.0,86.35,82.75,-1,
 420555,-556,-1262,-8114,-130,301,151,329,-1,3,5168,1,188,77,2763,-1,-1,0,0,-1,400,56.0,10252.0,87.23,82.75,-1,
 420575,-952,-1284,-7600,-13,87,248,328,1,6,5168,-7,188,53,2744,0,-1,0,0,-1,400,56.0,10269.0,88.13,82.63,-1,
 420585,-712,-904,-8064,-2,20,329,328,-2,1,5168,0,189,64,2743,0,-1,0,0,-1,400,56.0,10285.0,89.19,82.63,-1,
 420605,-424,-444,-8278,-3,-98,311,328,2,2,5160,1,188,82,2743,0,-1,0,0,-1,400,56.0,10303.0,90.68,82.63,-1,
 420615,-384,-12,-8502,-26,-111,286,328,4,-1,5176,-2,186,66,2743,0,-1,0,0,-1,400,56.0,10319.0,91.66,82.63,-1,
 420635,-438,676,-8340,-56,-91,246,327,-1,7,5168,1,184,55,2742,0,-1,0,0,-1,400,56.0,10335.0,92.95,82.63,-1,
 420655,132,694,-7994,-47,-52,185,327,0,1,5160,2,184,60,2738,0,-1,0,0,-1,400,56.0,10352.0,94.12,82.63,-1,
 420665,108,894,-8192,-4,-84,122,328,-3,-1,5168,0,185,64,2725,-1,-1,0,0,-1,400,56.0,10368.0,95.17,82.63,-1,
 420685,-562,626,-8236,-16,-56,128,327,1,2,5168,-1,190,75,2693,-1,-1,0,0,-1,400,56.0,10385.0,95.94,82.86,-1,
 420695,-658,204,-8240,-8,-64,158,328,2,6,5176,-5,190,66,2677,-1,-1,0,0,-1,400,56.0,10402.0,96.72,82.75,-1,
 420725,-364,-38,-8468,-25,-93,289,328,2,5,5168,1,194,68,2656,0,-1,0,0,-1,400,56.0,10418.0,97.35,82.75,-1,
 420735,-474,398,-8344,-37,-98,276,327,0,0,5160,3,193,71,2657,0,-1,0,0,-1,400,56.0,10435.0,97.67,82.75,-1,
 420745,-322,508,-8280,-54,-77,269,329,1,2,5168,-2,190,74,2657,0,-1,0,0,-1,400,56.0,10468.0,97.83,82.86,-1,
 420755,-224,440,-8260,-61,-37,243,328,1,1,5160,1,187,68,2657,0,-1,0,0,-1,400,56.0,10485.0,97.51,82.75,-1,
 420805,-780,544,-8486,-12,-26,16,328,0,-1,5160,4,186,35,2657,0,-1,0,0,-1,400,56.0,10501.0,96.88,82.75,-1,
 420815,-634,908,-8424,-38,-24,24,328,0,1,5168,2,184,26,2658,0,-1,0,0,-1,400,56.0,10518.0,96.09,82.75,-1,
 420835,-470,720,-8268,-41,-90,158,328,-1,-2,5168,0,186,48,2657,0,-1,0,0,-1,400,56.0,10535.0,95.17,82.86,-1,
 420855,-110,920,-8100,-27,-16,254,328,-1,-3,5168,0,190,65,2657,0,-1,0,0,-1,400,56.0,10551.0,93.82,82.75,-1,
 420875,-446,86,-8276,0,-30,223,328,0,3,5168,0,188,32,2657,0,-1,0,0,-1,400,56.0,10602.0,89.73,82.75,-1,
 420895,-204,-1042,-8398,-33,-5,156,328,-1,1,5160,0,180,12,2658,0,-1,0,0,-1,400,56.0,10618.0,88.66,82.75,-1,
 420915,-156,-1256,-8300,-22,-79,32,328,1,-2,5168,0,185,54,2658,0,-1,0,0,-1,400,56.0,10634.0,87.87,82.75,-1,
 420935,-258,-618,-8312,-26,-61,-86,328,0,-2,5168,-3,186,43,2658,0,-1,0,0,-1,400,56.0,10651.0,86.85,82.75,-1,
 420975,-314,-670,-8288,-43,-12,-101,327,-1,-4,5168,-1,185,45,2657,0,-1,0,0,-1,400,56.0,10668.0,86.1,82.75,-1,
 420995,-644,-14,-8226,-25,-11,-80,327,1,3,5160,-1,187,38,2657,0,-1,0,0,-1,400,56.0,10701.0,84.87,82.75,-1,
 421015,-690,-304,-8276,-9,-19,10,328,-1,-2,5160,0,193,22,2657,0,-1,0,0,-1,400,56.0,10717.0,84.63,82.75,-1,
 421035,-556,-244,-8338,-18,-50,69,328,1,-1,5168,6,190,42,2656,0,-1,0,0,-1,400,56.0,10735.0,84.27,82.75,-1,
 421055,-346,-338,-8358,-23,-28,59,328,0,-2,5168,0,190,32,2657,0,-1,0,0,-1,400,56.0,10751.0,84.27,82.86,-1,
 421075,-282,-966,-8308,-16,-44,28,327,0,-2,5176,1,190,43,2658,0,-1,0,0,-1,400,56.0,10784.0,84.75,82.86,-1,
 421085,-374,-782,-8370,-8,-62,10,328,0,1,5160,0,187,40,2657,0,-1,0,0,-1,400,56.0,10834.0,86.98,82.86,-1,
 421105,-540,-506,-8320,-8,-113,12,328,-2,1,5168,0,181,20,2657,0,-1,0,0,-1,400,56.0,10850.0,88.0,82.86,-1,
 421175,-716,386,-8304,3,-66,114,328,-2,-3,5168,2,191,29,2657,0,-1,0,0,-1,400,56.0,10867.0,89.32,82.86,-1,
 421185,-628,386,-8470,-7,-72,136,328,3,0,5168,4,194,36,2657,0,-1,0,0,-1,400,56.0,10884.0,90.41,82.86,-1,
 421195,-534,276,-8542,-17,-78,153,328,1,1,5176,-1,191,43,2656,0,-1,0,0,-1,400,56.0,10901.0,91.66,82.75,-1,
 421205,-512,138,-8444,-30,-117,193,328,-3,0,5168,7,189,44,2656,0,-1,0,0,-1,400,56.0,10917.0,93.38,82.75,-1,
 421215,-258,74,-8372,-47,-108,206,328,5,3,5168,-2,183,28,2656,0,-1,0,0,-1,400,56.0,10917.0,93.38,82.75,-1,
 421235,-208,686,-8088,-62,-90,188,329,0,0,5168,3,185,57,2656,0,-1,0,0,-1,400,56.0,10933.0,94.87,82.75,-1,
 421255,-454,1200,-8068,-8,-11,162,327,1,-1,5168,0,183,87,2656,0,-1,0,0,-1,400,56.0,10950.0,96.09,82.75,-1,
 421265,-286,42,-8248,-1,-3,102,328,3,0,5168,0,182,77,2656,0,-1,0,0,-1,400,56.0,10967.0,97.51,82.75,-1,
 421285,-566,-96,-8460,-2,-50,0,329,1,3,5168,0,188,54,2645,0,-1,0,0,-1,400,56.0,10984.0,98.15,82.75,-1,
 421305,-462,116,-8150,-31,-25,105,327,0,1,5168,0,184,27,2641,0,-1,0,0,-1,400,56.0,11000.0,98.31,82.86,-1,
 421315,-312,206,-8158,-23,1,105,328,-1,-2,5168,-1,182,16,2642,0,-1,0,0,-1,400,56.0,11016.0,98.15,82.75,-1,
 421325,-352,94,-8206,-22,53,78,327,-1,0,5168,-2,181,15,2642,0,-1,0,0,-1,400,56.0,11050.0,97.03,82.86,-1,
 421365,-436,1014,-8436,-24,-30,67,326,-5,-2,5176,-1,191,90,2642,0,-1,0,0,-1,400,56.0,11066.0,95.94,82.86,-1,
 421375,-448,1250,-8376,-33,-45,79,327,-3,3,5168,0,192,95,2642,0,-1,0,0,-1,400,56.0,11117.0,92.08,82.86,-1,
 421405,-518,1078,-8244,-17,-84,147,327,-4,1,5176,0,188,60,2642,0,-1,0,0,-1,400,56.0,11133.0,90.68,82.86,-1,
 421435,-478,-696,-8234,-10,-62,133,328,0,2,5168,2,187,63,2642,0,-1,0,0,-1,400,56.0,11149.0,89.32,82.86,-1,
 421465,-344,-1350,-8258,11,-104,-20,329,3,-1,5168,-2,189,92,2642,0,-1,0,0,-1,400,56.0,11166.0,87.87,82.86,-1,
 421485,-480,-868,-8404,-17,-140,-65,329,11,-4,5176,2,192,94,2642,0,-1,0,0,-1,400,56.0,11183.0,86.85,82.86,-1,
 421495,-490,-710,-8410,-33,-161,-66,328,1,-2,5168,1,191,119,2642,0,-1,0,0,-1,400,56.0,11200.0,85.97,82.86,-1,
 421515,-548,-1104,-8298,-48,-106,-45,328,0,-1,5168,0,188,90,2641,0,-1,0,0,-1,400,56.0,11216.0,85.11,82.86,-1,
 421535,-742,-430,-8190,-28,8,23,327,-3,2,5160,1,188,46,2642,0,-1,0,0,-1,400,56.0,11232.0,84.75,82.86,-1,
 421545,-518,-440,-8144,-27,89,46,327,-10,-1,5160,-2,189,52,2641,0,-1,0,0,-1,400,56.0,11250.0,84.63,82.86,-1,
 421565,-450,-474,-8326,-9,120,75,328,2,-1,5176,2,185,71,2641,0,-1,0,0,-1,400,56.0,11266.0,84.63,82.86,-1,
 421585,-510,-468,-8448,-1,22,72,328,-1,-2,5160,0,188,101,2642,0,-1,0,0,-1,400,56.0,11283.0,84.75,82.86,-1,
 421595,-408,-428,-8514,-5,-30,58,329,0,-2,5168,-2,187,98,2642,0,-1,0,0,-1,400,56.0,11299.0,85.11,82.86,-1,
 421615,44,-418,-8326,-33,-73,-95,328,-7,-5,5168,-3,188,67,2629,-1,-1,0,0,-1,400,56.0,11315.0,85.85,82.86,-1,
 421635,-600,-472,-8222,-37,-95,-86,328,-3,-3,5168,0,187,44,2612,0,-1,0,0,-1,400,56.0,11333.0,86.47,82.86,-1,
 421655,-554,-488,-8256,-17,-76,-25,328,-1,-4,5168,3,183,57,2610,0,-1,0,0,-1,400,56.0,11349.0,87.36,82.86,-1,
 421665,-594,-370,-8460,-32,-57,-14,328,1,1,5168,-1,184,72,2609,0,-1,0,0,-1,400,56.0,11365.0,88.53,82.86,-1,
 421685,-368,-346,-8298,-57,-57,-23,327,-8,-2,5168,0,189,56,2609,0,-1,0,0,-1,400,56.0,11382.0,89.73,82.75,-1,
 421705,-696,296,-8202,-44,-84,-37,328,0,-2,5168,2,187,50,2597,0,-1,0,0,-1,400,56.0,11399.0,90.96,82.86,-1,
 421715,-822,606,-8232,-25,-74,5,328,-3,4,5168,-2,186,62,2591,0,-1,0,0,-1,400,56.0,11416.0,92.51,82.75,-1,
 421735,-502,692,-8324,-27,-36,91,328,4,2,5168,4,187,67,2586,0,-1,0,0,-1,400,56.0,11432.0,93.97,82.86,-1,
 421755,-434,1022,-8314,-32,-41,179,328,1,0,5168,-1,186,72,2582,0,-1,0,0,-1,400,56.0,11448.0,95.02,82.86,-1,
 421765,-446,1090,-8094,-22,-3,202,327,-2,-1,5168,1,186,67,2581,0,-1,0,0,-1,400,56.0,11465.0,96.09,82.75,-1,
 421785,-196,356,-8202,48,-55,142,328,4,0,5168,-2,186,67,2581,0,-1,0,0,-1,400,56.0,11482.0,96.88,82.86,-1,
 421805,-412,-240,-8526,8,-77,48,329,3,0,5168,0,185,68,2581,0,-1,0,0,-1,400,56.0,11499.0,97.03,82.75,-1,
 421815,-386,-272,-8436,-14,-83,27,327,-4,-2,5168,0,188,54,2581,0,-1,0,0,-1,400,56.0,11531.0,96.25,82.75,-1,
 421845,-358,526,-8148,-25,-6,-13,327,-4,2,5168,0,192,70,2581,0,-1,0,0,-1,400,56.0,11549.0,95.63,82.86,-1,
 421865,-540,1386,-8232,7,64,-8,328,4,4,5160,0,191,89,2581,0,-1,0,0,-1,400,56.0,11565.0,95.02,82.86,-1,
 421885,-578,892,-8416,-4,-12,35,328,-3,0,5168,3,190,93,2582,0,-1,0,0,-1,400,56.0,11582.0,93.68,82.86,-1,
 421895,-514,486,-8452,3,-58,53,329,3,3,5168,0,185,47,2581,0,-1,0,0,-1,400,56.0,11598.0,92.51,82.86,-1,
 421905,-322,102,-8292,-10,-77,40,328,2,-1,5168,2,181,56,2581,0,-1,0,0,-1,400,56.0,11614.0,91.24,82.86,-1,
 421925,-120,-256,-8256,-6,-69,-31,328,1,0,5160,1,181,46,2581,0,-1,0,0,-1,400,56.0,11632.0,89.59,82.86,-1,
 421945,-330,-112,-8298,3,-50,-134,327,-1,-2,5176,-1,184,51,2581,0,-1,0,0,-1,400,56.0,11648.0,88.39,82.86,-1,
 421965,-580,-426,-8412,-22,-78,-178,328,1,0,5168,-1,184,89,2582,0,-1,0,0,-1,400,56.0,11664.0,87.23,82.86,-1,
 421985,-478,-1236,-8232,-54,-77,-154,327,-1,-4,5168,-1,189,93,2582,0,-1,0,0,-1,400,56.0,11681.0,85.85,82.86,-1,
 421995,-416,-1282,-8192,-48,-89,-145,327,-3,-5,5168,-4,192,98,2582,0,-1,0,0,-1,400,56.0,11698.0,85.11,82.86,-1,
 422015,-468,-1110,-8186,-26,-35,-156,328,4,2,5160,1,191,73,2582,0,-1,0,0,-1,400,56.0,11715.0,84.39,82.86,-1,
 422035,-794,-150,-8258,-4,1,-86,329,4,4,5168,1,186,61,2581,0,-1,0,0,-1,400,56.0,11747.0,83.79,82.86,-1,
 422065,-632,-280,-8286,-15,20,95,327,-7,-4,5168,-1,185,72,2581,0,-1,0,0,-1,400,56.0,11764.0,83.79,82.86,-1,
 422085,-318,-234,-8354,-22,20,107,329,6,-2,5168,1,189,65,2581,0,-1,0,0,-1,400,56.0,11781.0,83.91,82.86,-1,
 422095,-288,-306,-8360,-23,8,103,329,8,2,5168,-2,189,74,2581,0,-1,0,0,-1,400,56.0,11798.0,84.15,82.86,-1,
 422115,-360,-310,-8316,-18,-21,77,328,0,-1,5160,-1,182,28,2581,0,-1,0,0,-1,400,56.0,11814.0,84.51,82.86,-1,
 422125,-456,-158,-8350,-15,-36,61,329,1,2,5168,-1,182,31,2581,0,-1,0,0,-1,400,56.0,11830.0,85.11,82.86,-1,
 422145,-626,-780,-8404,-21,-80,70,328,2,-1,5168,0,185,31,2581,0,-1,0,0,-1,400,56.0,11848.0,85.72,82.86,-1,
 422165,38,-1344,-8364,-36,-113,1,327,-1,-2,5176,-1,188,76,2577,0,-1,0,0,-1,400,56.0,11864.0,86.35,82.86,-1,
 422175,-84,-1254,-8382,-21,-174,-43,326,-5,-4,5168,-1,189,89,2567,-1,-1,0,0,-1,400,56.0,11881.0,87.61,82.86,-1,
 422185,-632,-1044,-8248,-14,-206,-32,328,3,2,5168,0,193,88,2556,-1,-1,0,0,-1,400,56.0,11881.0,87.61,82.86,-1,
 422195,-868,-562,-8116,-3,-157,13,326,-7,-1,5168,-6,189,54,2550,2,-1,0,0,-1,400,56.0,11897.0,88.79,82.86,-1,
 422215,-588,698,-8056,22,-28,48,328,7,-1,5160,0,191,74,2550,0,-1,0,0,-1,400,56.0,11913.0,90.13,82.86,-1,
 422235,-592,1320,-8542,-5,-39,147,328,2,-4,5176,-5,191,73,2550,0,-1,0,0,-1,400,56.0,11931.0,91.8,82.86,-1,
 422245,-618,930,-8444,-23,-56,195,328,-7,1,5160,-1,189,73,2550,0,-1,0,0,-1,400,56.0,11947.0,93.09,82.75,-1,
 422265,-402,928,-8216,-42,-16,237,328,3,4,5160,-2,188,82,2549,0,-1,0,0,-1,400,56.0,11963.0,94.12,82.86,-1,
 422285,308,726,-7890,-42,192,190,328,1,3,5168,3,188,64,2549,0,-1,0,0,-1,400,56.0,11980.0,95.02,82.86,-1,
 422295,18,848,-8296,-9,201,196,328,-7,-1,5160,-1,186,60,2551,0,-1,0,0,-1,400,56.0,12014.0,95.02,82.86,-1,
 422335,-382,-120,-8404,-27,-190,-15,328,1,-1,5168,0,190,59,2550,0,-1,0,0,-1,400,56.0,12030.0,94.42,82.86,-1,
 422345,-418,302,-8156,-28,-171,-42,328,2,-3,5160,-2,188,73,2551,0,-1,0,0,-1,400,56.0,12046.0,93.82,82.86,-1,
 422365,-278,820,-8096,-8,-40,-73,328,-2,3,5160,-1,189,83,2550,0,-1,0,0,-1,400,56.0,12063.0,93.09,82.86,-1,
 422375,-316,1026,-8150,-10,11,-65,328,0,-2,5168,-3,191,63,2550,0,-1,0,0,-1,400,56.0,12080.0,92.37,82.86,-1,
 422385,-516,906,-8370,-3,2,-50,328,7,1,5168,1,193,74,2551,0,-1,0,0,-1,400,56.0,12097.0,91.24,82.86,-1,
 422415,-468,-446,-8334,-8,-56,-42,328,2,-2,5160,0,183,49,2550,0,-1,0,0,-1,400,56.0,12113.0,90.27,82.86,-1,
 422425,-346,-606,-8358,-17,-56,-48,328,5,2,5168,1,187,33,2551,0,-1,0,0,-1,400,56.0,12129.0,89.46,82.86,-1,
 422435,-418,-562,-8334,-13,-68,-68,328,-1,-1,5168,2,187,34,2550,0,-1,0,0,-1,400,56.0,12147.0,88.26,82.86,-1,
 422445,-360,-380,-8286,-14,-66,-89,328,3,2,5152,-1,186,48,2551,0,-1,0,0,-1,400,56.0,12147.0,88.26,82.86,-1,
 422465,-420,232,-8348,-18,-61,-127,328,4,1,5160,-1,184,49,2551,0,-1,0,0,-1,400,56.0,12180.0,86.47,82.86,-1,
 422495,-454,-344,-8290,-43,-68,-105,327,0,-2,5160,-3,186,84,2550,0,-1,0,0,-1,400,56.0,12196.0,85.6,82.86,-1,
 422515,-446,-1054,-8252,-33,-50,-104,327,-3,0,5160,-1,191,78,2550,0,-1,0,0,-1,400,56.0,12212.0,85.11,82.86,-1,
 422525,-552,-1210,-8218,-23,-17,-100,327,1,2,5168,-1,189,72,2550,0,-1,0,0,-1,400,56.0,12230.0,84.75,82.75,-1,
 422545,-862,-296,-8274,-10,10,-25,328,3,4,5160,0,189,85,2550,0,-1,0,0,-1,400,56.0,12246.0,84.51,82.75,-1,
 422565,-722,-454,-8176,-25,53,83,328,3,-3,5160,2,188,68,2550,0,-1,0,0,-1,400,56.0,12262.0,84.51,82.75,-1,
 422585,-474,-836,-8352,-10,16,95,327,1,-2,5168,0,192,35,2549,0,-1,0,0,-1,400,56.0,12279.0,84.51,82.75,-1,
 422595,-438,-1396,-8420,-9,32,109,328,3,1,5160,-2,191,31,2550,0,-1,0,0,-1,400,56.0,12296.0,84.75,82.75,-1,
 422615,-266,-1490,-8302,5,-18,85,329,2,0,5168,0,185,58,2548,0,-1,0,0,-1,400,56.0,12313.0,85.23,82.75,-1,
 422635,-454,-466,-8418,5,-110,31,328,-1,-1,5168,5,188,39,2541,0,-1,0,0,-1,400,56.0,12329.0,85.72,82.75,-1,
 422645,-620,6,-8446,-8,-72,55,327,-4,-2,5168,-4,191,60,2538,0,-1,0,0,-1,400,56.0,12345.0,86.6,82.75,-1,
 422655,-672,56,-8364,-8,-105,58,326,-8,7,5176,1,190,60,2536,0,-1,0,0,-1,400,56.0,12362.0,87.49,82.86,-1,
 422685,-324,196,-8292,-30,-118,44,327,2,0,5168,0,188,61,2530,0,-1,0,0,-1,400,56.0,12396.0,89.73,82.75,-1,
 422715,-570,496,-8364,-8,-134,39,327,-5,-2,5168,0,186,45,2510,0,-1,0,0,-1,400,56.0,12412.0,90.96,82.75,-1,
 422725,-504,678,-8454,-10,-108,92,328,2,-2,5160,-1,188,47,2505,0,-1,0,0,-1,400,56.0,12428.0,92.37,82.63,-1,
 422735,-618,948,-8304,-16,-106,125,329,5,2,5168,3,189,68,2501,0,-1,0,0,-1,400,56.0,12446.0,93.97,82.75,-1,
 422765,-596,804,-8272,-25,-29,196,328,3,2,5168,-2,187,58,2488,0,-1,0,0,-1,400,56.0,12462.0,95.17,82.75,-1,
 422775,-782,978,-8050,-15,25,197,328,-2,4,5168,1,187,32,2483,0,-1,0,0,-1,400,56.0,12479.0,95.94,82.75,-1,
 422795,62,598,-8216,-16,217,281,328,0,0,5152,-1,189,58,2480,0,-1,0,0,-1,400,56.0,12495.0,96.4,82.75,-1,
 422805,-460,-110,-8390,33,88,274,328,3,0,5168,-1,190,72,2481,0,-1,0,0,-1,400,56.0,12511.0,96.25,82.75,-1,
 422815,-526,-342,-8538,40,14,195,327,-1,0,5168,0,194,91,2481,0,-1,0,0,-1,400,56.0,12529.0,95.94,82.75,-1,
 422845,-382,394,-8274,-35,-72,15,327,-5,1,5152,-2,189,70,2481,0,-1,0,0,-1,400,56.0,12545.0,95.33,82.75,-1,
 422855,-620,742,-8260,-23,-86,-3,328,3,-3,5168,0,188,59,2481,0,-1,0,0,-1,400,56.0,12561.0,94.57,82.75,-1,
 422885,-590,610,-8226,-1,-20,27,328,2,-4,5168,-4,185,61,2480,0,-1,0,0,-1,400,56.0,12578.0,93.68,82.75,-1,
 422895,-442,490,-8254,2,-28,57,327,1,-3,5160,-3,183,86,2481,0,-1,0,0,-1,400,56.0,12595.0,92.51,82.75,-1,
 422915,-236,356,-8324,7,-43,84,328,-1,-2,5184,0,189,78,2482,0,-1,0,0,-1,400,56.0,12612.0,91.38,82.75,-1,
 422925,-94,214,-8350,6,-62,76,327,-1,-2,5160,0,192,67,2481,0,-1,0,0,-1,400,56.0,12628.0,90.27,82.75,-1,
 422935,-684,116,-8406,4,-83,31,329,5,2,5168,1,188,49,2482,0,-1,0,0,-1,400,56.0,12644.0,88.92,82.75,-1,
 422965,-294,-1526,-8468,-43,-215,-136,328,4,-4,5168,-3,188,53,2482,0,-1,0,0,-1,400,56.0,12661.0,87.74,82.75,-1,
 422975,-144,-1804,-8262,-41,-201,-151,329,5,1,5160,0,191,64,2481,0,-1,0,0,-1,400,56.0,12678.0,86.98,82.75,-1,
 422995,-386,-1322,-8016,-7,-116,-130,328,1,0,5168,0,193,70,2480,0,-1,0,0,-1,400,56.0,12695.0,86.1,82.75,-1,
 423015,-854,-546,-8384,-3,-94,-21,327,-7,0,5168,-3,188,59,2480,0,-1,0,0,-1,400,56.0,12711.0,85.48,82.75,-1,
 423025,-584,-158,-8432,-25,-108,9,327,-1,-4,5160,2,189,65,2480,0,-1,0,0,-1,400,56.0,12727.0,85.11,82.75,-1,
 423045,-434,-290,-8236,-67,-33,-9,328,1,-2,5168,0,185,77,2482,0,-1,0,0,-1,400,56.0,12745.0,84.87,82.75,-1,
 423065,-374,-850,-8088,-41,4,-22,328,0,0,5168,-2,185,59,2480,0,-1,0,0,-1,400,56.0,12761.0,84.87,82.75,-1,
 423075,-392,-618,-8100,-26,43,-34,327,-1,1,5160,1,186,44,2480,0,-1,0,0,-1,400,56.0,12778.0,85.11,82.75,-1,
 423085,-506,-132,-8314,-20,55,-41,328,0,1,5168,0,184,62,2481,0,-1,0,0,-1,400,56.0,12794.0,85.36,82.75,-1,
 423115,-640,-270,-8462,-53,45,19,328,-1,-1,5160,0,183,95,2480,0,-1,0,0,-1,400,56.0,12810.0,85.97,82.75,-1,
 423125,-276,-924,-8470,-47,-42,-3,328,1,-3,5160,-4,182,78,2480,0,-1,0,0,-1,400,56.0,12828.0,86.72,82.75,-1,
 423145,-882,-1372,-8254,-21,-144,-27,328,1,3,5168,2,187,52,2467,0,-1,0,0,-1,400,56.0,12844.0,87.61,82.75,-1,
 423155,-1112,-1032,-8224,-17,-139,-1,327,-5,4,5168,0,188,70,2465,0,-1,0,0,-1,400,56.0,12861.0,89.19,82.75,-1,
 423165,-904,-26,-8182,-11,-124,26,328,11,1,5176,-2,190,97,2464,0,-1,0,0,-1,400,56.0,12877.0,90.82,82.63,-1,
 423185,-680,888,-8534,-16,-159,133,328,0,1,5168,2,191,87,2465,0,-1,0,0,-1,400,56.0,12894.0,92.8,82.63,-1,
 423215,-1014,1980,-8250,-112,-63,357,328,-2,0,5168,-2,184,66,2465,0,-1,0,0,-1,400,56.0,12911.0,95.63,82.63,-1,
 423235,-690,1814,-7598,-86,170,534,328,0,0,5168,4,187,57,2464,0,-1,0,0,-1,400,56.0,12927.0,97.51,82.63,-1,
 423245,-64,2312,-7498,-73,528,732,327,0,0,5168,0,191,72,2465,0,-1,0,0,-1,400,56.0,12960.0,99.46,82.63,-1,
 423275,-338,-1778,-8746,157,3,738,329,0,0,5160,0,191,67,2464,0,-1,0,0,-1,400,56.0,12977.0,99.13,82.63,-1,
 423295,310,-1442,-8940,7,-163,402,328,2,-2,5168,-1,188,65,2464,0,-1,0,0,-1,400,56.0,12994.0,98.48,82.52,-1,
 423325,480,572,-7974,-46,-72,-99,328,-2,-1,5176,-2,190,71,2465,0,-1,0,0,-1,400,56.0,13044.0,95.33,82.63,-1,
 423365,-632,76,-8342,-29,-36,-124,326,-7,-4,5176,2,188,76,2465,0,-1,0,0,-1,400,56.0,13060.0,93.82,82.63,-1,
 423375,-722,-180,-8236,-7,-77,-71,328,0,-1,5160,0,191,104,2464,0,-1,0,0,-1,400,56.0,13077.0,92.23,82.63,-1,
 423395,-560,116,-8234,21,-58,-26,328,-3,3,5176,-1,193,72,2464,0,-1,0,0,-1,400,56.0,13093.0,90.96,82.63,-1,
 423405,-340,406,-8256,37,-91,-3,329,4,-7,5160,0,190,52,2465,0,-1,0,0,-1,400,56.0,13127.0,87.74,82.63,-1,
 423435,-746,936,-8152,-44,-456,-29,328,2,1,5168,1,190,52,2465,0,-1,0,0,-1,400,56.0,13143.0,86.35,82.63,-1,
 423465,-308,-2022,-7504,-151,196,-178,328,-1,5,5184,-4,192,83,2464,0,-1,0,0,-1,400,56.0,13160.0,85.11,82.63,-1,
 423485,-128,-1842,-8296,17,7,-286,327,2,-3,5168,-1,188,55,2465,0,-1,0,0,-1,400,56.0,13176.0,84.27,82.63,-1,
 423495,-550,-1336,-8452,-1,-10,-282,328,-2,0,5168,-2,184,45,2465,0,-1,0,0,-1,400,56.0,13193.0,83.91,82.75,-1,
 423515,-1162,-588,-8296,-54,35,-164,328,2,0,5168,0,182,46,2465,0,-1,0,0,-1,400,56.0,13210.0,83.79,82.63,-1,
 423525,-1006,-714,-8238,-43,60,-76,328,6,-6,5176,0,182,46,2465,0,-1,0,0,-1,400,56.0,13226.0,83.68,82.63,-1,
 423545,-802,-554,-8212,-28,31,61,327,-5,0,5168,0,188,72,2464,0,-1,0,0,-1,400,56.0,13242.0,83.68,82.75,-1,
 423565,-422,-688,-8236,-21,73,87,327,-1,3,5168,0,185,54,2464,0,-1,0,0,-1,400,56.0,13259.0,84.03,82.75,-1,
 423575,-376,-758,-8276,-29,107,93,328,3,1,5168,-1,182,39,2464,0,-1,0,0,-1,400,56.0,13276.0,84.51,82.63,-1,
 423595,-482,-404,-8324,-14,68,95,327,0,1,5168,-1,184,33,2464,0,-1,0,0,-1,400,56.0,13293.0,85.23,82.75,-1,
 423605,-442,950,-7306,-94,475,113,328,1,-2,5168,0,185,23,2464,0,-1,0,0,-1,400,56.0,13309.0,86.1,82.75,-1,
 423625,-250,-1116,-8310,4,299,106,327,-1,6,5168,-2,182,2,2464,0,-1,0,0,-1,400,56.0,13325.0,86.85,82.75,-1,
 423645,-614,104,-8250,-16,150,78,327,-3,3,5168,0,185,5,2461,0,-1,0,0,-1,400,56.0,13343.0,87.74,82.75,-1,
 423665,-440,-134,-8234,-19,-75,85,327,0,0,5168,0,182,-7,2461,0,-1,0,0,-1,400,56.0,13359.0,88.66,82.75,-1,
 423685,-538,118,-8252,-26,-94,68,328,-2,-4,5160,1,182,19,2460,0,-1,0,0,-1,400,56.0,13408.0,92.8,82.75,-1,
 423745,-680,624,-8066,-21,33,273,328,2,-1,5168,-2,189,33,2460,0,-1,0,0,-1,400,56.0,13442.0,96.4,82.63,-1,
 423765,-364,806,-8412,45,8,262,329,11,4,5168,2,188,45,2461,0,-1,0,0,-1,400,56.0,13459.0,97.67,82.63,-1,
 423775,-448,448,-8512,27,-29,274,326,-2,-3,5168,0,188,39,2460,0,-1,0,0,-1,400,56.0,13475.0,98.15,82.52,-1,
 423795,-212,2,-8426,-17,-60,228,328,3,0,5168,1,190,34,2460,0,-1,0,0,-1,400,56.0,13492.0,98.15,82.52,-1,
 423805,-164,-44,-8266,-32,-52,163,328,1,3,5168,5,190,64,2460,0,-1,0,0,-1,400,56.0,13509.0,97.51,82.52,-1,
 423815,-150,-78,-8260,-26,-43,115,328,0,1,5176,0,191,82,2460,0,-1,0,0,-1,400,56.0,13525.0,96.25,82.52,-1,
 423845,-226,736,-8204,-12,4,-38,329,1,0,5176,-1,194,100,2461,0,-1,0,0,-1,400,56.0,13541.0,95.33,82.52,-1,
 423855,-274,974,-8280,-5,-10,-51,328,2,-3,5168,1,185,97,2461,0,-1,0,0,-1,400,56.0,13558.0,93.82,82.63,-1,
 423875,-650,740,-8438,17,-163,-70,327,-6,-1,5160,4,186,91,2461,0,-1,0,0,-1,400,56.0,13575.0,91.94,82.63,-1,
 423895,-202,-488,-8068,-21,-302,-54,327,0,-2,5168,-3,184,61,2461,0,-1,0,0,-1,400,56.0,13592.0,90.54,82.63,-1,
 423905,-480,-286,-8234,0,-476,-25,328,9,1,5168,1,185,54,2461,0,-1,0,0,-1,400,56.0,13608.0,89.06,82.63,-1,
 423925,-582,256,-7470,-22,-1062,12,328,4,0,5168,1,189,46,2460,0,-1,0,0,-1,400,56.0,13624.0,87.36,82.63,-1,
 423935,592,-1476,-7306,21,-284,-53,328,2,0,5168,3,188,71,2461,0,-1,0,0,-1,400,56.0,13642.0,86.35,82.63,-1,
 423965,-768,-152,-8374,-28,-107,-213,327,-7,-1,5176,0,192,66,2461,0,-1,0,0,-1,400,56.0,13675.0,84.63,82.63,-1,
 423995,-532,-908,-8186,-27,-80,-132,327,-1,-1,5168,-2,192,50,2461,0,-1,0,0,-1,400,56.0,13691.0,84.27,82.63,-1,
 424025,-714,-562,-8280,-43,17,-17,327,0,-2,5168,-4,184,73,2461,0,-1,0,0,-1,400,56.0,13725.0,84.15,82.63,-1,
 424045,-608,-1300,-8332,-46,20,55,328,0,-5,5160,2,188,91,2461,0,-1,0,0,-1,400,56.0,13741.0,84.51,82.63,-1,
 424065,60,-1440,-8366,56,257,126,327,-6,1,5168,1,191,118,2460,0,-1,0,0,-1,400,56.0,13758.0,85.11,82.63,-1,
 424075,198,-1382,-5978,-148,801,99,327,0,-4,5168,0,192,75,2458,0,-1,0,0,-1,400,56.0,13774.0,86.35,82.63,-1,
 424095,384,-2722,-7188,-42,219,55,326,3,5,5176,-1,190,67,2457,0,-1,0,0,-1,400,56.0,13791.0,87.61,82.63,-1,
 424105,-56,-658,-7998,5,2,-58,325,-3,-1,5168,0,191,73,2457,0,-1,0,0,-1,400,56.0,13808.0,89.06,82.75,-1,
 424125,-720,2242,-8682,-64,-101,-212,327,3,4,5176,0,189,75,2456,0,-1,0,0,-1,400,56.0,13824.0,90.96,82.75,-1,
 424145,-920,2326,-8228,-79,-108,-84,326,-3,-5,5168,-3,190,85,2456,0,-1,0,0,-1,400,56.0,13840.0,92.51,82.63,-1,
 424155,-988,2118,-8156,-92,-58,26,327,6,2,5168,1,185,64,2456,0,-1,0,0,-1,400,56.0,13857.0,93.82,82.63,-1,
 424175,-1216,1008,-7976,-66,29,278,327,2,1,5168,3,185,83,2456,0,-1,0,0,-1,400,56.0,13874.0,95.33,82.63,-1,
 424195,-550,596,-8074,53,46,380,328,6,7,5168,0,188,81,2456,0,-1,0,0,-1,400,56.0,13891.0,96.4,82.63,-1,
 424205,-572,582,-8506,49,46,403,326,-4,-3,5168,0,189,72,2456,0,-1,0,0,-1,400,56.0,13923.0,97.83,82.63,-1,
 424235,-358,-232,-8570,-35,-95,342,327,-7,-1,5160,0,188,74,2456,0,-1,0,0,-1,400,56.0,13941.0,97.99,82.52,-1,
 424255,-220,84,-8230,-95,-69,285,328,7,0,5168,0,189,95,2456,0,-1,0,0,-1,400,56.0,13957.0,97.99,82.52,-1,
 424275,30,270,-7982,-73,48,174,327,2,1,5168,-1,189,100,2457,0,-1,0,0,-1,400,56.0,13974.0,97.67,82.52,-1,
 424285,-58,112,-7864,-7,76,100,328,4,1,5168,3,192,80,2458,0,-1,0,0,-1,400,56.0,13990.0,97.03,82.52,-1,
 424305,-288,-110,-8318,96,-14,-15,327,7,-3,5168,0,190,83,2456,0,-1,0,0,-1,400,56.0,14006.0,96.25,82.52,-1,
 424325,-336,104,-8628,34,-51,-66,327,-2,0,5168,0,190,77,2457,0,-1,0,0,-1,400,56.0,14024.0,95.48,82.52,-1,
 424345,-148,812,-8276,11,-109,-106,328,3,-2,5168,0,188,73,2457,0,-1,0,0,-1,400,56.0,14040.0,94.27,82.52,-1,
 424355,-84,1108,-8126,19,-97,-132,328,0,4,5168,0,188,63,2457,0,-1,0,0,-1,400,56.0,14057.0,92.8,82.63,-1,
 424365,78,1288,-8054,45,-72,-146,327,0,3,5168,-1,187,68,2457,0,-1,0,0,-1,400,56.0,14073.0,91.24,82.63,-1,
 424385,-490,670,-8292,63,-9,-208,326,-4,1,5168,0,185,78,2458,0,-1,0,0,-1,400,56.0,14089.0,89.06,82.75,-1,
 424405,-586,-696,-8352,42,-95,-272,326,1,-2,5168,1,186,69,2457,0,-1,0,0,-1,400,56.0,14107.0,87.23,82.75,-1,
 424425,-388,-1494,-8082,53,-110,-366,327,0,-1,5168,-1,185,26,2457,0,-1,0,0,-1,400,56.0,14123.0,85.6,82.86,-1,
 424445,-688,-634,-8332,64,-153,-315,326,-9,-1,5168,0,187,51,2457,0,-1,0,0,-1,400,56.0,14139.0,83.68,82.86,-1,
 424455,-566,-582,-8364,63,-122,-302,327,-5,0,5168,0,186,50,2457,0,-1,0,0,-1,400,56.0,14156.0,82.75,82.75,-1,
 424465,-568,-646,-8230,81,-104,-293,327,1,-2,5168,0,187,45,2457,0,-1,0,0,-1,400,56.0,14173.0,82.06,82.75,-1,
 424475,-568,-568,-8298,80,-74,-292,328,4,-1,5168,1,188,43,2458,0,-1,0,0,-1,400,56.0,14190.0,81.95,82.75,-1,
 424485,-578,-406,-8348,81,-56,-264,327,4,-6,5168,4,187,34,2457,0,-1,0,0,-1,400,56.0,14190.0,81.95,82.75,-1,
 424505,-564,-210,-7986,102,-28,-204,327,3,-3,5168,-1,185,72,2457,0,-1,0,0,-1,400,56.0,14206.0,81.84,82.75,-1,
 424515,-340,-172,-7352,177,-30,-198,326,-6,-4,5168,-2,187,103,2456,0,-1,0,0,-1,400,56.0,14222.0,81.73,82.75,-1,
 424525,-758,24,-7084,421,-116,-155,327,1,1,5168,2,191,113,2457,0,-1,0,0,-1,400,56.0,14240.0,81.73,82.75,-1,
 424555,904,-120,-7758,2,-73,-64,327,-2,0,5168,1,187,82,2457,0,-1,0,0,-1,400,56.0,14256.0,81.73,82.75,-1,
 424575,-124,110,-8260,-27,-156,-184,327,-1,6,5168,3,184,65,2458,0,-1,0,0,-1,400,56.0,14273.0,81.73,82.75,-1,
 424585,-414,-144,-8416,-32,-212,-219,327,0,-1,5168,2,184,54,2458,0,-1,0,0,-1,400,56.0,14305.0,81.61,82.75,-1,
 424615,-706,-230,-8436,-77,-104,-172,327,5,1,5168,0,184,76,2458,0,-1,0,0,-1,400,56.0,14323.0,81.61,82.75,-1,
 424625,-622,-226,-8278,-95,-101,-131,327,2,-1,5168,0,184,65,2457,0,-1,0,0,-1,400,56.0,14323.0,81.61,82.75,-1,
 424635,-574,-220,-8178,-79,-118,-120,327,1,2,5168,0,188,52,2458,0,-1,0,0,-1,400,56.0,14339.0,81.61,82.63,-1,
 424645,-594,-212,-7980,-48,-100,-100,326,-5,-4,5168,1,187,60,2457,0,-1,0,0,-1,400,56.0,14356.0,81.61,82.63,-1,
 424665,-690,-250,-8294,-14,-50,-38,328,0,-1,5168,-1,183,57,2458,0,-1,0,0,-1,400,56.0,14372.0,81.61,82.63,-1,
 424675,-636,-204,-8312,-19,-50,-17,327,2,1,5168,-1,184,47,2457,0,-1,0,0,-1,400,56.0,14389.0,81.61,82.63,-1,
 424705,-560,-110,-8152,1,-32,26,327,0,3,5168,3,191,92,2457,0,-1,0,0,-1,400,56.0,14406.0,81.61,82.52,-1,
 424725,-520,-178,-8228,24,-14,43,326,1,-2,5168,2,183,47,2458,0,-1,0,0,-1,400,56.0,14422.0,81.61,82.52,-1,
 424745,-646,-170,-8398,9,13,78,327,-2,1,5160,-1,186,46,2458,0,-1,0,0,-1,400,56.0,14438.0,81.5,82.52,-1,
 424755,-724,-112,-8610,-3,-30,101,326,-7,-2,5168,0,185,44,2458,0,-1,0,0,-1,400,56.0,14455.0,81.61,82.63,-1,
 424775,-758,-144,-8466,-111,-79,178,326,0,-6,5168,0,189,42,2457,0,-1,0,0,-1,400,56.0,14472.0,81.61,82.63,-1,
 424785,-594,-182,-8110,-102,-96,194,327,4,2,5160,-1,190,56,2458,0,-1,0,0,-1,400,56.0,14489.0,81.61,82.63,-1,
 424805,238,-42,-6472,144,-73,77,327,-4,1,5168,0,193,55,2457,0,-1,0,0,-1,400,56.0,14505.0,81.61,82.63,-1,
 424825,-1078,-584,-11042,207,918,-170,328,3,2,5176,0,189,50,2457,0,-1,0,0,-1,400,56.0,14521.0,81.5,82.63,-1,
 424845,-276,-182,-8594,39,110,-102,327,-1,0,5160,1,184,52,2457,0,-1,0,0,-1,400,56.0,14539.0,81.5,82.75,-1,
 424855,-436,-198,-7910,27,54,-88,327,3,-2,5168,1,183,60,2457,0,-1,0,0,-1,400,56.0,14555.0,81.5,82.75,-1,
 424865,-554,-64,-7968,142,434,-106,327,2,3,5160,1,184,61,2458,0,-1,0,0,-1,400,56.0,14572.0,81.5,82.63,-1,
 424885,-328,-146,-8556,123,347,-24,328,6,3,5168,3,184,37,2457,0,-1,0,0,-1,400,56.0,14588.0,81.5,82.52,-1,
 424905,-244,-268,-8432,-3,48,-10,327,0,1,5168,4,186,53,2458,0,-1,0,0,-1,400,56.0,14604.0,81.5,82.63,-1,
 424925,16,-302,-8630,-74,-158,-11,328,0,2,5176,2,186,55,2458,0,-1,0,0,-1,400,56.0,14622.0,81.5,82.63,-1,
 424945,-278,-134,-8142,-120,-287,-50,326,2,-1,5160,-3,186,49,2457,0,-1,0,0,-1,400,56.0,14638.0,81.5,82.63,-1,
 424975,-420,-290,-8014,157,535,-160,326,-2,0,5168,2,187,80,2457,0,-1,0,0,-1,400,56.0,14671.0,81.5,82.63,-1,
 424985,-586,-236,-8164,239,773,-165,327,0,4,5168,4,190,76,2456,0,-1,0,0,-1,400,56.0,14687.0,81.5,82.63,-1,
 425005,-448,-98,-8642,153,544,-57,326,-6,-6,5168,1,186,94,2458,0,-1,0,0,-1,400,56.0,14705.0,81.5,82.63,-1,
 425025,-102,-294,-8542,-22,-57,29,328,5,4,5176,2,187,79,2458,0,-1,0,0,-1,400,56.0,14721.0,81.5,82.63,-1,
 425045,-220,-242,-8216,-26,-63,36,327,3,-1,5160,0,189,70,2458,0,-1,0,0,-1,400,56.0,14737.0,81.5,82.63,-1,
 425055,-230,-232,-8232,3,9,31,328,3,2,5176,-1,188,56,2457,0,-1,0,0,-1,400,56.0,14754.0,81.5,82.63,-1,
 425075,-210,-248,-8304,19,20,-5,327,2,4,5176,0,190,52,2457,0,-1,0,0,-1,400,56.0,14770.0,81.5,82.63,-1,
 425085,-262,-194,-8284,23,42,-19,328,-2,2,5160,0,188,46,2458,0,-1,0,0,-1,400,56.0,14788.0,81.61,82.63,-1,
 425105,-154,-276,-8226,32,107,2,327,5,3,5168,-3,188,45,2458,0,-1,0,0,-1,400,56.0,14804.0,81.5,82.63,-1,
 425125,-268,-280,-8238,-24,-44,1,327,3,1,5176,0,187,39,2458,0,-1,0,0,-1,400,56.0,14820.0,81.5,82.63,-1,
 425135,-232,-274,-8276,-9,-48,1,326,0,0,5168,4,187,42,2458,0,-1,0,0,-1,400,56.0,14837.0,81.5,82.63,-1,
 425155,-296,-262,-8120,26,34,-9,328,3,2,5168,1,190,45,2457,0,-1,0,0,-1,400,56.0,14854.0,81.5,82.63,-1,
 425175,-62,-228,-8174,35,101,-4,327,1,-2,5168,0,189,65,2457,0,-1,0,0,-1,400,56.0,14871.0,81.5,82.63,-1,
 425185,-32,-178,-8140,33,125,9,326,-8,3,5168,3,187,65,2458,0,-1,0,0,-1,400,56.0,14887.0,81.5,82.63,-1,
 425195,-32,-222,-8354,27,102,18,328,3,2,5160,-2,188,43,2457,0,-1,0,0,-1,400,56.0,14903.0,81.5,82.63,-1,
 425205,-34,-314,-8432,-14,-20,44,326,-4,-1,5168,3,192,57,2458,0,-1,0,0,-1,400,56.0,14920.0,81.5,82.63,-1,
 425225,-86,-238,-8262,-9,-17,27,328,7,4,5176,1,190,58,2458,0,-1,0,0,-1,400,56.0,14954.0,81.5,82.52,-1,
 425255,-168,-260,-8270,-35,-93,41,327,-3,-3,5168,-1,188,81,2457,0,-1,0,0,-1,400,56.0,14970.0,81.5,82.52,-1,
 425295,-150,-230,-8266,-16,-45,37,328,-1,-1,5160,-1,192,80,2458,0,-1,0,0,-1,400,56.0,14986.0,81.5,82.52,-1,
 425305,-178,-294,-8320,-11,-19,33,327,0,-3,5168,0,187,55,2458,0,-1,0,0,-1,400,56.0,15003.0,81.5,82.52,-1,
 425325,-124,-272,-8340,-7,0,29,327,-1,-2,5168,1,187,76,2456,0,-1,0,0,-1,400,56.0,15020.0,81.5,82.4,-1,
 425335,-130,-302,-8272,1,15,23,327,-3,0,5168,-1,189,85,2458,0,-1,0,0,-1,400,56.0,15037.0,81.5,82.4,-1,
 425355,-178,-228,-8154,45,150,20,327,2,-5,5176,0,185,63,2457,0,-1,0,0,-1,400,56.0,15053.0,81.5,82.4,-1,
 425375,-396,-184,-7936,294,972,-55,328,0,0,5160,-2,187,73,2457,0,-1,0,0,-1,400,56.0,15087.0,81.61,82.4,-1,
 425405,422,-522,-8092,379,1468,-374,327,-6,-2,5168,0,188,53,2457,0,-1,0,0,-1,400,56.0,15103.0,81.73,82.4,-1,
 425415,958,-274,-7278,324,530,-284,328,3,2,5168,2,187,42,2457,0,-1,0,0,-1,400,56.0,15119.0,81.73,82.4,-1,
 425435,326,-422,-7486,-76,-1324,-18,327,0,-1,5168,2,190,32,2457,0,-1,0,0,-1,400,56.0,15136.0,81.73,82.4,-1,
 425455,78,-378,-8556,-425,-1430,136,328,-3,0,5176,-1,187,46,2458,0,-1,0,0,-1,400,56.0,15152.0,81.73,82.4,-1,
 425465,-632,-346,-9166,-260,-462,137,328,11,4,5168,0,186,62,2457,0,-1,0,0,-1,400,56.0,15170.0,81.61,82.4,-1,
 425485,-262,-306,-8988,216,1095,25,327,5,-1,5168,0,186,52,2458,0,-1,0,0,-1,400,56.0,15186.0,81.61,82.4,-1,
 425505,176,-386,-7962,153,619,19,327,3,-1,5168,4,186,94,2457,0,-1,0,0,-1,400,56.0,15202.0,81.61,82.52,-1,
 425525,92,-472,-7876,-40,-462,71,327,-5,-2,5152,-8,185,58,2457,0,-1,0,0,-1,400,56.0,15219.0,81.61,82.52,-1,
 425535,124,-428,-8078,-130,-686,70,328,0,2,5168,4,185,51,2457,0,-1,0,0,-1,400,56.0,15236.0,81.61,82.52,-1,
 425555,44,-346,-8496,-138,-559,76,327,-1,-1,5168,1,186,52,2458,0,-1,0,0,-1,400,56.0,15253.0,81.61,82.52,-1,
 425575,-94,-336,-8468,24,247,28,327,2,-1,5160,0,184,42,2457,0,-1,0,0,-1,400,56.0,15285.0,81.61,82.52,-1,
 425605,176,-362,-8148,18,150,38,326,-6,0,5168,0,186,44,2457,0,-1,0,0,-1,400,56.0,15303.0,81.61,82.52,-1,
 425615,238,-350,-8134,-15,-115,42,327,-3,2,5168,-2,187,54,2458,0,-1,0,0,-1,400,56.0,15319.0,81.61,82.63,-1,
 425635,108,-338,-8336,-81,-402,51,327,2,5,5168,0,188,88,2457,0,-1,0,0,-1,400,56.0,15336.0,81.61,82.63,-1,
 425655,12,-336,-8362,-22,-105,46,327,8,0,5168,0,186,69,2457,0,-1,0,0,-1,400,56.0,15352.0,81.61,82.52,-1,
 425675,34,-360,-8336,10,191,28,327,-3,3,5160,2,183,62,2456,0,-1,0,0,-1,400,56.0,15368.0,81.61,82.52,-1,
 425685,98,-328,-8288,8,159,37,328,4,2,5168,2,185,77,2458,0,-1,0,0,-1,400,56.0,15402.0,81.61,82.4,-1,
 425715,142,-314,-8274,-32,-170,38,326,0,-1,5168,1,183,53,2458,0,-1,0,0,-1,400,56.0,15418.0,81.61,82.4,-1,
 425735,92,-352,-8332,-27,-116,43,328,2,1,5168,2,189,55,2456,0,-1,0,0,-1,400,56.0,15435.0,81.61,82.4,-1,
 425755,68,-332,-8322,-6,49,36,326,0,1,5168,0,189,64,2458,0,-1,0,0,-1,400,56.0,15452.0,81.61,82.4,-1,
 425765,94,-338,-8294,-5,66,35,327,3,-4,5168,-1,193,102,2457,0,-1,0,0,-1,400,56.0,15469.0,81.61,82.52,-1,
 425805,112,-348,-8280,-17,-78,43,328,3,1,5160,3,189,79,2457,0,-1,0,0,-1,400,56.0,15501.0,81.5,82.52,-1,
 425815,82,-324,-8292,-23,-61,37,327,3,-2,5168,3,186,90,2458,0,-1,0,0,-1,400,56.0,15519.0,81.5,82.52,-1,
 425835,112,-328,-8296,-13,-34,43,327,-1,-1,5168,3,188,91,2457,0,-1,0,0,-1,400,56.0,15535.0,81.5,82.52,-1,
 425845,130,-350,-8306,-12,-63,42,326,-1,-3,5168,0,190,76,2458,0,-1,0,0,-1,400,56.0,15552.0,81.5,82.63,-1,
 425855,94,-346,-8274,-16,-78,42,326,-4,-1,5160,0,187,63,2458,0,-1,0,0,-1,400,56.0,15584.0,81.39,82.63,-1,
 425875,110,-334,-8320,-17,-73,42,326,-2,-2,5168,1,189,71,2457,0,-1,0,0,-1,400,56.0,15602.0,81.39,82.63,-1,
 425905,86,-338,-8274,-11,7,37,326,-6,3,5160,1,187,62,2458,0,-1,0,0,-1,400,56.0,15618.0,81.39,82.63,-1,
 425925,96,-340,-8252,-22,-70,45,326,-3,-2,5160,1,187,100,2458,0,-1,0,0,-1,400,56.0,15635.0,81.5,82.75,-1,
 425955,154,-338,-8282,-14,-37,45,328,0,-1,5160,1,191,69,2458,0,-1,0,0,-1,400,56.0,15651.0,81.61,82.63,-1,
 425975,88,-362,-8322,-12,-81,39,328,6,2,5160,1,190,64,2457,0,-1,0,0,-1,400,56.0,15668.0,81.5,82.63,-1,
 425985,106,-374,-8260,-25,-78,45,327,0,0,5168,4,188,51,2458,0,-1,0,0,-1,400,56.0,15685.0,81.5,82.63,-1,
 425995,102,-330,-8266,-22,-52,45,326,-2,0,5168,0,188,52,2458,0,-1,0,0,-1,400,56.0,15701.0,81.39,82.52,-1,
 426005,78,-328,-8320,-22,-18,37,328,0,-1,5160,1,189,45,2458,0,-1,0,0,-1,400,56.0,15717.0,81.39,82.52,-1,
 426015,58,-326,-8330,-13,-15,39,327,3,-2,5168,0,183,42,2457,0,-1,0,0,-1,400,56.0,15734.0,81.39,82.52,-1,
 426055,98,-344,-8284,-12,-27,36,328,-4,2,5152,-3,181,44,2458,0,-1,0,0,-1,400,56.0,15751.0,81.39,82.52,-1,
 426065,124,-350,-8296,-15,-30,42,328,6,-3,5176,-1,183,79,2456,0,-1,0,0,-1,400,56.0,15768.0,81.39,82.52,-1,
 426075,80,-342,-8302,-18,-49,39,326,-4,-4,5176,2,186,71,2458,0,-1,0,0,-1,400,56.0,15784.0,81.5,82.52,-1,
 426095,102,-352,-8272,-17,-56,39,327,1,-2,5160,-4,192,81,2457,0,-1,0,0,-1,400,56.0,15800.0,81.5,82.52,-1,
 426105,102,-330,-8298,-17,-51,39,326,-3,1,5160,0,193,65,2458,0,-1,0,0,-1,400,56.0,15818.0,81.5,82.52,-1,
 426135,90,-354,-8306,-16,-32,41,327,0,-1,5160,3,187,85,2458,0,-1,0,0,-1,400,56.0,15834.0,81.5,82.52,-1,
 426145,90,-344,-8316,-12,-35,38,327,0,3,5168,-1,187,76,2458,0,-1,0,0,-1,400,56.0,15851.0,81.5,82.52,-1,
 426165,74,-340,-8306,-12,-36,39,327,-2,2,5168,1,181,49,2457,0,-1,0,0,-1,400,56.0,15867.0,81.5,82.63,-1,
 426185,106,-356,-8308,-16,-39,42,326,4,-3,5160,0,188,56,2458,0,-1,0,0,-1,400,56.0,15883.0,81.5,82.63,-1,
 426195,70,-304,-8306,-15,-42,38,327,0,1,5176,-3,187,82,2458,0,-1,0,0,-1,400,56.0,15901.0,81.5,82.63,-1,
 426205,88,-354,-8290,-17,-35,43,327,0,-1,5160,0,188,83,2457,0,-1,0,0,-1,400,56.0,15917.0,81.5,82.63,-1,
 426215,102,-318,-8302,-15,-39,38,327,-3,0,5168,-1,188,90,2458,0,-1,0,0,-1,400,56.0,15950.0,81.5,82.75,-1,
 426255,88,-316,-8306,-17,-34,45,328,1,0,5152,3,188,41,2458,0,-1,0,0,-1,400,56.0,15967.0,81.5,82.63,-1,
 426285,82,-332,-8318,-15,-38,37,327,6,1,5168,2,184,62,2457,0,-1,0,0,-1,400,56.0,15984.0,81.5,82.63,-1,
 426305,96,-344,-8290,-15,-43,42,325,-9,4,5168,-3,186,58,2456,0,-1,0,0,-1,400,56.0,16000.0,81.5,82.63,-1,
 426315,80,-312,-8306,-15,-42,39,328,-1,-5,5168,0,189,67,2457,0,-1,0,0,-1,400,56.0,16016.0,81.5,82.63,-1,
 426335,84,-358,-8276,-20,-38,44,327,0,-2,5168,1,187,38,2458,0,-1,0,0,-1,400,56.0,16033.0,81.5,82.63,-1,
 426355,98,-346,-8298,-19,-42,41,328,-1,0,5168,1,183,26,2456,0,-1,0,0,-1,400,56.0,16050.0,81.5,82.63,-1,
 426365,96,-356,-8296,-12,-38,44,327,-2,-1,5168,2,187,35,2457,0,-1,0,0,-1,400,56.0,16067.0,81.5,82.63,-1,
 426385,82,-338,-8302,-20,-35,45,329,0,-1,5168,1,184,19,2457,0,-1,0,0,-1,400,56.0,16083.0,81.5,82.63,-1,
 426405,80,-354,-8298,-17,-35,40,327,0,1,5168,-1,193,51,2457,0,-1,0,0,-1,400,56.0,16099.0,81.5,82.75,-1,
 426415,74,-338,-8290,-12,-43,40,327,0,-1,5168,2,192,46,2458,0,-1,0,0,-1,400,56.0,16117.0,81.5,82.63,-1,
 426435,90,-330,-8288,-11,-39,41,328,2,5,5168,3,190,23,2457,0,-1,0,0,-1,400,56.0,16133.0,81.5,82.63,-1,
 426455,94,-344,-8286,-16,-36,39,327,-1,-2,5168,-3,189,31,2458,0,-1,0,0,-1,400,56.0,16150.0,81.5,82.63,-1,
 426475,74,-328,-8298,-12,-37,43,326,-3,1,5176,6,189,14,2458,0,-1,0,0,-1,400,56.0,16166.0,81.5,82.52,-1,
 426485,106,-342,-8300,-14,-40,39,326,-3,2,5168,3,187,19,2457,0,-1,0,0,-1,400,56.0,16182.0,81.5,82.52,-1,
 426495,72,-354,-8282,-16,-45,43,327,1,3,5168,-1,185,41,2458,0,-1,0,0,-1,400,56.0,16200.0,81.5,82.52,-1,
 426535,92,-374,-8298,-16,-43,38,327,3,-3,5168,0,189,51,2458,0,-1,0,0,-1,400,56.0,16233.0,81.5,82.63,-1,
 426555,96,-342,-8306,-18,-39,41,327,2,-1,5168,-2,184,40,2458,0,-1,0,0,-1,400,56.0,16249.0,81.5,82.63,-1,
 426565,98,-348,-8276,-13,-41,41,326,-5,-1,5168,3,182,29,2458,0,-1,0,0,-1,400,56.0,16266.0,81.5,82.75,-1,
 426585,96,-320,-8302,-14,-38,39,326,-5,-3,5160,-4,187,55,2458,0,-1,0,0,-1,400,56.0,16283.0,81.5,82.63,-1,
 426595,88,-354,-8310,-14,-37,41,327,1,-1,5168,-2,186,54,2456,0,-1,0,0,-1,400,56.0,16299.0,81.5,82.75,-1,
 426605,86,-362,-8302,-15,-40,45,327,-1,-2,5168,1,186,60,2458,0,-1,0,0,-1,400,56.0,16315.0,81.5,82.63,-1,
 426615,92,-364,-8290,-14,-40,41,327,0,2,5160,-2,191,67,2457,0,-1,0,0,-1,400,56.0,16332.0,81.5,82.52,-1,
 426655,74,-348,-8298,-19,-37,37,327,10,1,5168,1,191,82,2456,0,-1,0,0,-1,400,56.0,16349.0,81.5,82.63,-1,
 426665,106,-360,-8296,-21,-37,39,328,-3,-3,5168,1,188,75,2457,0,-1,0,0,-1,400,56.0,16366.0,81.5,82.63,-1,
 426685,108,-320,-8300,-16,-43,42,327,1,1,5168,4,188,85,2457,0,-1,0,0,-1,400,56.0,16382.0,81.5,82.52,-1,
 426695,86,-342,-8302,-18,-37,45,326,-1,-1,5168,0,190,62,2458,0,-1,0,0,-1,400,56.0,16398.0,81.5,82.4,-1,
 426705,88,-342,-8298,-15,-41,40,327,4,2,5168,-1,191,50,2458,0,-1,0,0,-1,400,56.0,16416.0,81.5,82.52,-1,
 426735,80,-338,-8292,-17,-41,39,327,0,-5,5168,-1,186,44,2456,0,-1,0,0,-1,400,56.0,16432.0,81.5,82.63,-1,
 426755,104,-346,-8300,-15,-44,41,328,0,6,5168,0,184,42,2457,0,-1,0,0,-1,400,56.0,16449.0,81.5,82.52,-1,
 426765,70,-348,-8278,-19,-44,41,327,1,2,5184,2,186,44,2458,0,-1,0,0,-1,400,56.0,16465.0,81.5,82.4,-1,
 426775,84,-356,-8314,-14,-40,40,328,3,4,5168,0,188,50,2457,0,-1,0,0,-1,400,56.0,16499.0,81.5,82.4,-1,
 426785,102,-348,-8292,-18,-36,37,326,-4,-2,5168,2,187,62,2457,0,-1,0,0,-1,400,56.0,16499.0,81.5,82.4,-1,
 426815,86,-330,-8276,-18,-37,46,327,0,-4,5168,0,190,76,2458,0,-1,0,0,-1,400,56.0,16515.0,81.5,82.52,-1,
 426835,98,-354,-8286,-21,-40,41,326,-3,1,5160,1,186,31,2458,0,-1,0,0,-1,400,56.0,16532.0,81.5,82.4,-1,
 426845,62,-350,-8278,-13,-42,38,327,-1,0,5168,-1,187,19,2456,0,-1,0,0,-1,400,56.0,16548.0,81.5,82.52,-1,
 426865,96,-330,-8310,-14,-46,40,327,0,1,5160,0,191,63,2458,0,-1,0,0,-1,400,56.0,16565.0,81.5,82.63,-1,
 426885,92,-350,-8296,-14,-40,43,327,-3,0,5168,0,192,67,2457,0,-1,0,0,-1,400,56.0,16582.0,81.5,82.63,-1,
 426905,84,-314,-8302,-15,-37,43,327,-1,1,5168,2,191,51,2458,0,-1,0,0,-1,400,56.0,16598.0,81.5,82.63,-1,
 426915,88,-344,-8288,-20,-36,44,327,0,2,5160,0,190,79,2458,0,-1,0,0,-1,400,56.0,16614.0,81.5,82.52,-1,
 426935,104,-344,-8314,-16,-44,39,327,2,0,5168,2,188,74,2458,0,-1,0,0,-1,400,56.0,16631.0,81.5,82.52,-1,
 426955,104,-348,-8282,-19,-39,43,327,-2,0,5168,0,185,61,2458,0,-1,0,0,-1,400,56.0,16648.0,81.5,82.52,-1,
 426965,84,-330,-8296,-18,-39,42,327,-8,-1,5168,0,184,54,2458,0,-1,0,0,-1,400,56.0,16665.0,81.5,82.52,-1,
 426985,88,-332,-8294,-13,-38,44,328,1,1,5168,3,189,51,2457,0,-1,0,0,-1,400,56.0,16681.0,81.5,82.4,-1,
 426995,104,-346,-8316,-13,-39,38,327,1,1,5168,-2,190,69,2457,0,-1,0,0,-1,400,56.0,16697.0,81.5,82.52,-1,
 427015,90,-336,-8306,-18,-37,45,328,1,-6,5168,2,185,55,2458,0,-1,0,0,-1,400,56.0,16715.0,81.5,82.52,-1,
 427035,80,-342,-8268,-15,-47,40,328,2,-2,5160,2,187,34,2458,0,-1,0,0,-1,400,56.0,16731.0,81.39,82.63,-1,
 427055,82,-358,-8292,-15,-34,39,328,-3,0,5168,-1,182,29,2458,0,-1,0,0,-1,400,56.0,16748.0,81.39,82.63,-1,
 427065,94,-352,-8276,-18,-41,45,327,3,-4,5168,2,184,48,2457,0,-1,0,0,-1,400,56.0,16764.0,81.39,82.52,-1,
 427085,62,-334,-8296,-22,-43,44,327,-3,0,5168,2,186,65,2458,0,-1,0,0,-1,400,56.0,16780.0,81.39,82.52,-1,
 427105,86,-362,-8280,-15,-28,39,327,-5,2,5168,-3,188,80,2458,0,-1,0,0,-1,400,56.0,16798.0,81.39,82.52,-1,
 427115,74,-352,-8274,-19,-29,42,328,11,1,5168,1,188,77,2458,0,-1,0,0,-1,400,56.0,16814.0,81.39,82.52,-1,
 427135,86,-366,-8286,-16,-41,36,327,3,-1,5168,0,187,74,2457,0,-1,0,0,-1,400,56.0,16831.0,81.5,82.52,-1,
 427145,98,-326,-8292,-20,-37,41,327,0,1,5168,-3,188,63,2458,0,-1,0,0,-1,400,56.0,16881.0,81.5,82.75,-1,
 427155,100,-330,-8280,-15,-34,40,327,5,0,5168,0,188,54,2457,0,-1,0,0,-1,400,56.0,16897.0,81.5,82.63,-1,
 427195,102,-330,-8284,-15,-53,44,326,-3,-3,5168,0,182,45,2458,0,-1,0,0,-1,400,56.0,16913.0,81.61,82.4,-1,
 427215,94,-334,-8310,-14,-35,43,328,0,0,5168,-2,185,60,2458,0,-1,0,0,-1,400,56.0,16930.0,81.61,82.29,-1,
 427245,80,-316,-8336,-9,-15,40,328,-1,3,5176,-2,189,49,2458,0,-1,0,0,-1,400,56.0,16947.0,81.73,82.29,-1,
 427255,80,-362,-8320,-1,19,38,328,5,0,5168,-2,192,67,2456,0,-1,0,0,-1,400,56.0,16964.0,81.84,82.29,-1,
 427275,108,-374,-8240,-13,34,41,327,-2,2,5168,0,187,74,2458,0,-1,0,0,-1,400,56.0,16980.0,81.95,82.29,-1,
 427295,84,-318,-8246,-25,-102,43,327,-2,-1,5160,-6,185,58,2457,0,-1,0,0,-1,400,56.0,16996.0,81.84,82.29,-1,
 427315,96,-380,-8286,-28,-72,39,328,6,-1,5168,1,180,42,2458,0,-1,0,0,-1,400,56.0,17014.0,81.84,82.18,-1,
 427335,92,-354,-8290,-8,3,39,328,6,-1,5168,0,186,60,2457,0,-1,0,0,-1,400,56.0,17030.0,81.84,82.18,-1,
 427345,88,-340,-8262,-15,-7,38,327,1,1,5160,-2,188,64,2457,0,-1,0,0,-1,400,56.0,17047.0,81.84,82.18,-1,
 427365,110,-342,-8290,-22,-79,36,326,-8,-5,5160,0,191,53,2458,0,-1,0,0,-1,400,56.0,17063.0,81.73,82.29,-1,
 427385,90,-342,-8312,-21,-60,40,327,-4,3,5168,5,189,63,2458,0,-1,0,0,-1,400,56.0,17079.0,81.73,82.4,-1,
 427395,96,-322,-8308,-12,-36,42,327,0,-1,5168,-3,188,62,2458,0,-1,0,0,-1,400,56.0,17097.0,81.61,82.4,-1,
 427415,96,-350,-8302,-16,-42,41,328,3,1,5168,-1,186,37,2458,0,-1,0,0,-1,400,56.0,17113.0,81.61,82.29,-1,
 427435,66,-338,-8378,0,11,35,327,-3,0,5160,1,184,53,2458,0,-1,0,0,-1,400,56.0,17130.0,81.61,82.18,-1,
 427445,0,-340,-8384,46,126,3,326,-7,0,5160,-2,184,52,2458,0,-1,0,0,-1,400,56.0,17146.0,81.61,82.29,-1,
 427465,-164,-500,-8898,709,1754,-1034,328,-8,-3,5168,0,184,61,2470,0,-1,0,0,-1,400,56.0,17163.0,81.61,82.29,-1,
 427475,588,-268,-2610,1,2351,-1216,328,-2,-4,5168,-2,185,72,2470,0,-1,0,0,-1,400,56.0,17180.0,81.61,82.18,-1,
 427495,-1870,-1504,-8936,-206,-1955,-1240,327,-3,-2,5160,0,186,74,2471,0,-1,0,0,-1,400,56.0,17196.0,81.61,82.29,-1,
 427515,160,-58,-8180,-542,-1918,-692,327,-5,-4,5168,0,191,49,2472,0,-1,0,0,-1,400,56.0,17229.0,81.61,82.4,-1,
 427545,536,-258,-9082,189,1379,93,327,0,4,5168,-2,188,33,2471,0,-1,0,0,-1,400,56.0,17246.0,81.5,82.29,-1,
 427565,510,-330,-7572,133,301,344,328,0,1,5168,2,188,76,2472,0,-1,0,0,-1,400,56.0,17263.0,81.5,82.4,-1,
 427585,-8,-438,-8104,-65,-1029,381,327,-1,1,5168,5,191,72,2471,0,-1,0,0,-1,400,56.0,17279.0,81.5,82.29,-1,
 427595,92,-384,-8202,-164,-1151,305,328,4,-1,5160,-4,195,69,2472,0,-1,0,0,-1,400,56.0,17295.0,81.5,82.29,-1,
 427605,-434,-218,-8694,-150,-761,97,328,0,1,5168,0,192,52,2471,0,-1,0,0,-1,400,56.0,17312.0,81.5,82.29,-1,
 427615,-262,-382,-8272,-73,-169,10,327,-6,-2,5160,0,189,45,2471,0,-1,0,0,-1,400,56.0,17312.0,81.5,82.29,-1,
 427625,-60,-330,-8380,45,546,-22,327,-1,2,5168,4,190,43,2471,0,-1,0,0,-1,400,56.0,17329.0,81.61,82.29,-1,
 427655,286,-318,-8006,19,113,23,327,-1,3,5176,2,188,100,2472,0,-1,0,0,-1,400,56.0,17346.0,81.61,82.29,-1,
 427665,322,-332,-8086,-50,-319,52,328,-1,1,5168,0,188,85,2471,0,-1,0,0,-1,400,56.0,17362.0,81.61,82.29,-1,
 427675,148,-334,-8286,-78,-498,53,328,6,-2,5168,-1,187,55,2472,0,-1,0,0,-1,400,56.0,17396.0,81.5,82.29,-1,
 427705,-30,-324,-8296,-9,87,31,329,3,1,5168,0,188,65,2471,0,-1,0,0,-1,400,56.0,17412.0,81.39,82.29,-1,
 427735,142,-378,-8220,-1,229,31,328,-1,-4,5168,0,188,69,2472,0,-1,0,0,-1,400,56.0,17429.0,81.39,82.29,-1,
 427745,210,-352,-8156,-16,-59,39,327,-3,-3,5168,-2,186,50,2471,0,-1,0,0,-1,400,56.0,17445.0,81.28,82.29,-1,
 427765,78,-346,-8300,-42,-324,44,328,-5,-1,5168,0,187,67,2471,0,-1,0,0,-1,400,56.0,17461.0,81.28,82.29,-1,
 427775,100,-316,-8330,-33,-238,39,327,-2,-2,5160,0,187,76,2471,0,-1,0,0,-1,400,56.0,17479.0,81.17,82.4,-1,
 427785,52,-354,-8364,-21,-40,37,328,-2,2,5168,1,184,55,2471,0,-1,0,0,-1,400,56.0,17528.0,81.17,82.18,-1,
 427815,120,-368,-8278,-7,155,39,329,2,-2,5168,-1,189,71,2471,0,-1,0,0,-1,400,56.0,17545.0,81.17,82.06,-1,
 427865,72,-324,-8334,-20,-99,41,327,-5,0,5160,0,186,54,2471,0,-1,0,0,-1,400,56.0,17562.0,81.28,81.95,-1,
 427875,54,-340,-8312,-10,-9,39,328,4,0,5168,-1,187,51,2471,0,-1,0,0,-1,400,56.0,17578.0,81.28,82.06,-1,
 427885,82,-336,-8332,-5,65,42,328,5,2,5168,3,189,45,2471,0,-1,0,0,-1,400,56.0,17578.0,81.28,82.06,-1,
 427895,120,-340,-8274,-10,59,43,327,0,-1,5152,-3,189,44,2472,0,-1,0,0,-1,400,56.0,17594.0,81.28,82.06,-1,
 427905,118,-356,-8260,-11,-38,40,328,-2,-1,5168,-1,188,49,2471,0,-1,0,0,-1,400,56.0,17611.0,81.39,81.95,-1,
 427935,42,-366,-8292,-35,-138,44,326,-9,-2,5160,-3,188,53,2471,0,-1,0,0,-1,400,56.0,17628.0,81.39,81.95,-1,
 427945,12,-300,-8334,-5,-59,45,328,0,2,5168,-2,190,72,2471,0,-1,0,0,-1,400,56.0,17645.0,81.39,82.06,-1,
 427965,84,-326,-8290,-16,64,39,327,-8,2,5168,2,191,90,2472,0,-1,0,0,-1,400,56.0,17661.0,81.5,82.18,-1,
 427985,86,-366,-8308,-9,27,39,328,-1,-1,5168,0,188,57,2471,0,-1,0,0,-1,400,56.0,17677.0,81.5,82.29,-1,
 427995,110,-356,-8232,-23,-18,35,328,-2,0,5160,-1,188,51,2471,0,-1,0,0,-1,400,56.0,17695.0,81.5,82.4,-1,
 428015,124,-400,-8216,-11,-65,37,328,3,5,5160,1,184,52,2471,0,-1,0,0,-1,400,56.0,17728.0,81.5,82.29,-1,
 428045,50,-326,-8290,-15,-20,35,327,-4,0,5168,0,188,41,2471,0,-1,0,0,-1,400,56.0,17744.0,81.39,82.29,-1,
 428065,66,-322,-8470,-3,-5,36,328,3,4,5168,-1,186,83,2471,0,-1,0,0,-1,400,56.0,17760.0,81.5,82.52,-1,
 428085,118,-368,-8314,-23,-74,41,328,1,0,5168,0,186,58,2471,0,-1,0,0,-1,400,56.0,17778.0,81.5,82.52,-1,
 428095,42,-270,-8412,-10,-72,39,328,3,-1,5160,-2,188,46,2471,0,-1,0,0,-1,400,56.0,17794.0,81.5,82.52,-1,
 428105,94,-314,-8380,-12,-69,42,327,-2,0,5168,2,187,55,2471,0,-1,0,0,-1,400,56.0,17811.0,81.5,82.52,-1,
 428125,76,-340,-8340,-15,-24,40,328,-4,2,5152,-2,183,55,2471,0,-1,0,0,-1,400,56.0,17827.0,81.39,82.52,-1,
 428145,46,-344,-8292,-13,-5,42,327,-2,-6,5160,1,184,55,2472,0,-1,0,0,-1,400,56.0,17843.0,81.39,82.63,-1,
 428165,108,-336,-8264,-15,-56,41,329,8,0,5168,-3,185,52,2472,0,-1,0,0,-1,400,56.0,17861.0,81.39,82.63,-1,
 428175,100,-326,-8272,-23,-76,42,328,0,-1,5160,-3,186,54,2472,0,-1,0,0,-1,400,56.0,17877.0,81.39,82.63,-1,
 428195,84,-310,-8274,-21,-63,39,328,5,1,5168,-2,186,57,2471,0,-1,0,0,-1,400,56.0,17893.0,81.39,82.63,-1,
 428215,102,-352,-8300,-14,-7,41,328,1,2,5168,0,185,62,2471,0,-1,0,0,-1,400,56.0,17910.0,81.39,82.63,-1,
 428225,102,-320,-8286,-13,-17,39,327,-2,-1,5160,-4,187,63,2471,0,-1,0,0,-1,400,56.0,17927.0,81.39,82.75,-1,
 428245,104,-320,-8296,-20,-78,39,328,0,4,5160,-6,187,79,2471,0,-1,0,0,-1,400,56.0,17944.0,81.39,82.75,-1,
 428265,116,-348,-8294,-17,-53,40,328,-3,5,5168,0,188,75,2472,0,-1,0,0,-1,400,56.0,17960.0,81.39,82.75,-1,
 428275,56,-324,-8346,-13,-20,37,328,-2,0,5160,0,185,73,2471,0,-1,0,0,-1,400,56.0,17976.0,81.39,82.75,-1,
 428295,92,-350,-8336,-5,19,35,327,-2,-4,5160,-1,188,103,2471,0,-1,0,0,-1,400,56.0,17993.0,81.39,82.75,-1,
 428315,150,-364,-8268,-25,-67,41,328,-1,0,5168,2,185,72,2471,0,-1,0,0,-1,400,56.0,18010.0,81.39,82.75,-1,
 428325,122,-328,-8310,-35,-140,45,328,2,3,5160,-4,184,61,2472,0,-1,0,0,-1,400,56.0,18027.0,81.5,82.63,-1,
 428355,62,-336,-8294,-11,-35,40,328,4,-2,5168,-5,187,38,2471,0,-1,0,0,-1,400,56.0,18059.0,81.5,82.52,-1,
 428375,94,-322,-8296,-14,19,39,327,-1,3,5160,-2,184,69,2471,0,-1,0,0,-1,400,56.0,18077.0,81.39,82.52,-1,
 428395,120,-348,-8294,-21,-62,41,328,2,-2,5168,0,188,90,2471,0,-1,0,0,-1,400,56.0,18093.0,81.5,82.52,-1,
 428405,114,-340,-8310,-19,-109,39,328,-1,3,5160,2,195,76,2471,0,-1,0,0,-1,400,56.0,18110.0,81.39,82.52,-1,
 428415,94,-340,-8306,-17,-114,43,328,-1,2,5168,0,194,60,2472,0,-1,0,0,-1,400,56.0,18142.0,81.5,82.4,-1,
 428425,86,-350,-8282,-17,-128,35,328,-2,0,5160,-1,194,73,2472,0,-1,0,0,-1,400,56.0,18160.0,81.5,82.52,-1,
 428465,46,-350,-8286,-10,-34,39,328,1,2,5168,0,185,74,2472,0,-1,0,0,-1,400,56.0,18176.0,81.61,82.52,-1,
 428495,74,-348,-8294,-16,-24,38,327,-5,0,5160,1,184,42,2471,0,-1,0,0,-1,400,56.0,18192.0,81.73,82.52,-1,
 428505,110,-344,-8276,-20,-21,38,327,-2,-5,5160,0,185,35,2471,0,-1,0,0,-1,400,56.0,18209.0,81.73,82.52,-1,
 428535,60,-342,-8300,-6,38,39,328,0,1,5160,0,185,62,2471,0,-1,0,0,-1,400,56.0,18226.0,81.73,82.4,-1,
 428545,84,-320,-8322,2,70,39,327,4,-1,5168,-4,186,59,2472,0,-1,0,0,-1,400,56.0,18243.0,81.73,82.4,-1,
 428565,124,-378,-8272,-11,-32,34,328,5,0,5176,2,187,49,2472,0,-1,0,0,-1,400,56.0,18259.0,81.61,82.4,-1,
 428585,104,-318,-8286,-27,-105,40,328,0,-6,5160,2,184,59,2472,0,-1,0,0,-1,400,56.0,18275.0,81.61,82.4,-1,
 428595,92,-336,-8334,-22,-107,37,327,-1,0,5160,-2,185,49,2471,0,-1,0,0,-1,400,56.0,18292.0,81.61,82.4,-1,
 428615,62,-350,-8288,-23,-34,37,327,1,2,5168,3,183,71,2471,0,-1,0,0,-1,400,56.0,18309.0,81.61,82.29,-1,
 428625,66,-298,-8330,-18,1,31,326,-6,-1,5160,-1,185,75,2472,0,-1,0,0,-1,400,56.0,18326.0,81.61,82.29,-1,
 428645,102,-312,-8278,-20,-17,41,327,-1,2,5168,0,188,62,2471,0,-1,0,0,-1,400,56.0,18342.0,81.5,82.29,-1,
 428655,132,-350,-8314,-15,-44,45,329,9,-1,5160,0,191,61,2471,0,-1,0,0,-1,400,56.0,18358.0,81.5,82.29,-1,
 428675,90,-346,-8274,-23,-65,40,328,-3,-4,5168,0,187,79,2472,0,-1,0,0,-1,400,56.0,18376.0,81.61,82.18,-1,
 428695,104,-352,-8286,-14,-38,35,328,2,-4,5168,-1,189,37,2471,0,-1,0,0,-1,400,56.0,18392.0,81.61,82.18,-1,
 428715,90,-330,-8368,-14,-6,38,327,-1,-1,5168,-2,185,50,2472,0,-1,0,0,-1,400,56.0,18409.0,81.61,82.06,-1,
 428725,74,-348,-8264,-16,-8,45,327,0,1,5168,-1,187,54,2471,0,-1,0,0,-1,400,56.0,18425.0,81.5,81.95,-1,
 428745,72,-324,-8290,-22,-46,42,328,1,0,5160,-2,191,67,2472,0,-1,0,0,-1,400,56.0,18441.0,81.5,82.06,-1,
 428755,100,-314,-8290,-21,-56,42,328,6,0,5160,0,186,73,2472,0,-1,0,0,-1,400,56.0,18459.0,81.5,82.06,-1,
 428765,80,-358,-8294,-19,-66,39,328,3,3,5168,-2,183,64,2472,0,-1,0,0,-1,400,56.0,18475.0,81.5,82.18,-1,
 428775,94,-340,-8310,-17,-54,38,327,-1,1,5160,0,185,84,2471,0,-1,0,0,-1,400,56.0,18491.0,81.5,82.18,-1,
 428795,80,-342,-8314,-15,-33,41,328,7,2,5168,-5,185,91,2471,0,-1,0,0,-1,400,56.0,18524.0,81.61,82.18,-1,
 428805,98,-354,-8266,-15,-36,44,328,1,2,5152,0,185,78,2472,0,-1,0,0,-1,400,56.0,18542.0,81.61,82.29,-1,
 428825,104,-336,-8306,-19,-51,42,327,-4,0,5168,0,186,74,2471,0,-1,0,0,-1,400,56.0,18558.0,81.61,82.18,-1,
 428855,98,-370,-8292,-20,-63,41,327,-2,0,5160,5,192,76,2471,0,-1,0,0,-1,400,56.0,18574.0,81.61,82.52,-1,
 428885,78,-332,-8298,-19,-55,41,328,7,0,5160,1,186,45,2471,0,-1,0,0,-1,400,56.0,18591.0,81.73,82.4,-1,
 428905,106,-314,-8190,-16,-34,35,328,0,-1,5168,0,185,44,2471,0,-1,0,0,-1,400,56.0,18608.0,81.73,82.4,-1,
 428925,98,-332,-8258,0,1,36,328,1,-3,5176,-1,190,79,2471,0,-1,0,0,-1,400,56.0,18625.0,81.73,82.4,-1,
 428945,58,-364,-8240,80,384,19,328,2,2,5160,-1,189,84,2471,0,-1,0,0,-1,400,56.0,18657.0,81.73,82.4,-1,
 428975,232,-422,-7942,-45,-218,56,327,-1,-1,5168,-6,186,46,2471,0,-1,0,0,-1,400,56.0,18675.0,81.61,82.52,-1,
 428995,94,-332,-8378,-122,-449,61,326,1,-3,5168,-4,186,18,2472,0,-1,0,0,-1,400,56.0,18691.0,81.61,82.52,-1,
 429005,-22,-352,-8542,-34,-216,38,328,0,4,5168,0,186,29,2471,0,-1,0,0,-1,400,56.0,18708.0,81.61,82.52,-1,
 429015,30,-314,-8368,20,6,39,327,-4,-3,5160,-2,183,42,2471,0,-1,0,0,-1,400,56.0,18724.0,81.61,82.52,-1,
 429035,102,-346,-8296,5,332,24,327,-1,-6,5160,0,183,49,2471,0,-1,0,0,-1,400,56.0,18740.0,81.61,82.52,-1,
 429055,200,-366,-8106,1,-101,42,328,-1,0,5168,-1,185,49,2472,0,-1,0,0,-1,400,56.0,18758.0,81.61,82.52,-1,
 429085,38,-340,-8430,-37,-179,41,327,-9,-1,5168,0,182,22,2472,0,-1,0,0,-1,400,56.0,18790.0,81.61,82.52,-1,
 429105,56,-350,-8286,-4,114,37,328,-3,1,5168,-1,181,18,2472,0,-1,0,0,-1,400,56.0,18807.0,81.61,82.52,-1,
 429125,100,-366,-8302,10,54,31,327,1,0,5168,0,185,5,2471,0,-1,0,0,-1,400,56.0,18824.0,81.61,82.52,-1,
 429145,128,-374,-8170,-31,-123,47,328,1,2,5168,-3,189,37,2471,0,-1,0,0,-1,400,56.0,18841.0,81.61,82.52,-1,
 429165,42,-422,-8364,-23,-157,25,327,-6,0,5168,2,182,0,2471,0,-1,0,0,-1,400,56.0,18857.0,81.5,82.52,-1,
 429175,4,-312,-8352,-10,-135,-7,328,1,-1,5168,-5,181,10,2472,0,-1,0,0,-1,400,56.0,18873.0,81.61,82.52,-1,
 429195,-120,-416,-8452,-68,-358,-699,328,2,-2,5176,-3,188,20,2471,0,-1,0,0,-1,400,56.0,18890.0,81.61,82.86,-1,
 429215,-386,-364,-8410,31,72,-782,329,6,3,5168,1,193,69,2471,0,-1,0,0,-1,400,56.0,18907.0,81.61,82.86,-1,
 429225,-450,-592,-8374,55,301,-638,328,4,-1,5168,-3,190,85,2472,0,-1,0,0,-1,400,56.0,18924.0,81.61,82.98,-1,
 429235,-88,-832,-8330,73,315,-500,329,6,4,5168,0,190,50,2472,0,-1,0,0,-1,400,56.0,18940.0,81.61,82.98,-1,
 429245,442,-368,-8246,64,358,-332,326,-6,1,5160,-1,191,49,2471,0,-1,0,0,-1,400,56.0,18956.0,81.61,82.98,-1,
 429265,414,-260,-8144,3,-121,80,327,-5,0,5168,-2,198,118,2471,0,-1,0,0,-1,400,56.0,18974.0,81.61,82.86,-1,
 429295,140,-238,-8220,-124,-304,251,328,5,1,5168,-2,187,51,2471,0,-1,0,0,-1,400,56.0,18990.0,81.61,82.86,-1,
 429305,-110,-118,-8286,-161,-431,71,328,6,2,5168,0,185,57,2471,0,-1,0,0,-1,400,56.0,19007.0,81.61,82.86,-1,
 429325,-168,-28,-8426,-92,-284,-292,328,1,-1,5176,-1,186,58,2472,0,-1,0,0,-1,400,56.0,19023.0,81.61,82.86,-1,
 429345,-266,-398,-8408,13,37,-313,327,-2,4,5160,-2,188,46,2472,0,-1,0,0,-1,400,56.0,19039.0,81.61,82.98,-1,
 429355,-228,-362,-8352,37,-6,-176,328,5,-1,5168,0,188,50,2472,0,-1,0,0,-1,400,56.0,19057.0,81.61,82.86,-1,
 429375,-98,-212,-8190,-40,-246,63,328,-1,-2,5168,0,191,39,2472,0,-1,0,0,-1,400,56.0,19073.0,81.61,82.75,-1,
 429385,-18,-430,-8170,-118,-272,148,328,5,5,5168,1,191,49,2472,0,-1,0,0,-1,400,56.0,19089.0,81.73,82.63,-1,
 429415,326,-748,-8548,-278,-585,115,327,3,-1,5160,-1,186,63,2473,0,-1,0,0,-1,400,56.0,19106.0,81.73,82.63,-1,
 429425,226,-590,-8730,-202,-672,136,328,-6,-2,5168,-4,184,96,2477,0,-1,0,0,-1,400,56.0,19123.0,81.61,82.63,-1,
 429445,-476,-146,-8274,-154,-770,361,327,0,-6,5176,0,188,87,2502,1,-1,0,0,-1,400,56.0,19140.0,81.61,82.75,-1,
 429455,-602,-64,-8350,-230,-861,424,327,-5,5,5168,2,188,85,2505,0,-1,0,0,-1,400,56.0,19156.0,81.73,82.75,-1,
 429465,-844,-508,-8556,-327,-999,691,327,-5,-2,5168,0,186,78,2506,0,-1,0,0,-1,400,56.0,19172.0,81.73,82.75,-1,
 429485,-172,-560,-7804,-392,-928,1088,328,5,-2,5168,0,185,58,2506,0,-1,0,0,-1,400,56.0,19189.0,81.73,82.75,-1,
 429505,1248,400,-7870,-190,46,662,327,0,3,5176,-6,189,62,2506,0,-1,0,0,-1,400,56.0,19206.0,81.73,82.86,-1,
 429525,798,348,-8274,-43,678,48,328,0,1,5160,-1,188,78,2506,0,-1,0,0,-1,400,56.0,19223.0,81.73,82.86,-1,
 429535,448,-102,-9132,-175,325,177,327,-1,-1,5168,0,191,85,2506,0,-1,0,0,-1,400,56.0,19239.0,81.73,82.86,-1,
 429545,214,-670,-9126,-77,-322,535,328,3,4,5168,-1,191,56,2506,0,-1,0,0,-1,400,56.0,19255.0,81.73,82.75,-1,
 429565,-634,-444,-8632,-107,-715,1278,328,0,1,5168,0,188,65,2505,0,-1,0,0,-1,400,56.0,19273.0,81.73,82.75,-1,
 429585,-934,268,-8176,-111,-809,1714,328,4,-6,5168,3,187,87,2506,0,-1,0,0,-1,400,56.0,19289.0,81.73,82.86,-1,
 429605,-752,1028,-7984,-2,-190,1399,329,1,1,5168,5,188,73,2506,0,-1,0,0,-1,400,56.0,19306.0,81.73,82.86,-1,
 429615,-964,730,-8014,45,-108,972,329,2,7,5160,7,188,60,2505,0,-1,0,0,-1,400,56.0,19322.0,81.61,82.86,-1,
 429645,-34,-1412,-8316,-39,-59,246,327,3,-1,5184,-1,189,78,2506,0,-1,0,0,-1,400,56.0,19338.0,81.5,82.98,-1,
 429665,-572,-258,-8308,-36,-67,118,327,-6,4,5168,1,189,73,2505,0,-1,0,0,-1,400,56.0,19372.0,81.5,82.86,-1,
 429685,-424,-166,-8076,27,89,66,329,5,-3,5168,4,189,76,2505,0,-1,0,0,-1,400,56.0,19389.0,81.61,82.86,-1,
 429705,-230,-154,-8366,34,146,-40,327,-1,1,5160,0,192,82,2505,0,-1,0,0,-1,400,56.0,19439.0,81.5,83.09,-1,
 429745,72,-222,-8410,-34,-64,-292,327,-3,-2,5176,0,189,51,2490,-1,-1,0,0,-1,400,56.0,19455.0,81.5,83.09,-1,
 429775,-438,-292,-8182,-84,-159,-197,328,1,2,5168,0,187,92,2471,0,-1,0,0,-1,400,56.0,19471.0,81.61,83.09,-1,
 429785,110,-428,-8258,-54,-60,-283,328,6,3,5168,0,184,72,2467,0,-1,0,0,-1,400,56.0,19488.0,81.5,83.21,-1,
 429805,-58,-854,-8392,-58,-103,-287,327,10,0,5168,1,184,58,2461,0,-1,0,0,-1,400,56.0,19505.0,81.61,83.56,-1,
 429825,-234,-638,-8264,-60,-127,-299,326,-1,0,5176,-4,186,75,2458,0,-1,0,0,-1,400,56.0,19522.0,81.61,83.79,-1,
 429835,-496,-288,-8262,-56,-134,-285,327,11,3,5168,2,186,79,2457,0,-1,0,0,-1,400,56.0,19538.0,81.61,84.15,-1,
 429845,-714,134,-8300,-55,-152,-240,326,10,2,5168,-3,190,79,2458,0,-1,0,0,-1,400,56.0,19554.0,81.61,84.75,-1,
 429875,-868,-174,-8128,23,17,-20,322,-1,0,5168,-1,191,98,2456,0,-1,0,0,-1,400,56.0,19572.0,81.61,85.11,-1,
 429885,-698,-1136,-8200,13,2,59,323,-2,3,5160,5,190,109,2455,0,-1,0,0,-1,400,56.0,19588.0,81.61,85.48,-1,
 429895,-652,-1150,-8350,17,-15,93,321,3,-2,5168,0,193,103,2455,0,-1,0,0,-1,400,56.0,19605.0,81.61,85.97,-1,
 429925,-864,-296,-8342,7,-133,213,321,-6,-3,5160,-5,186,90,2455,0,-1,0,0,-1,400,56.0,19621.0,81.61,86.6,-1,
 429935,-892,-522,-8212,5,-180,256,321,0,-2,5160,0,187,69,2456,0,-1,0,0,-1,400,56.0,19637.0,81.5,87.1,-1,
 429955,-258,-766,-8438,-13,-184,269,321,-4,-1,5168,-3,187,43,2455,0,-1,0,0,-1,400,56.0,19655.0,81.5,88.0,-1,
 429965,-304,-814,-8158,-40,-158,215,320,-1,-2,5160,1,191,38,2455,0,-1,0,0,-1,400,56.0,19671.0,81.5,88.66,-1,
 429975,-324,-752,-7986,2,-194,182,320,-5,-3,5176,-2,188,23,2455,0,-1,0,0,-1,400,56.0,19688.0,81.5,89.59,-1,
 430005,-908,-176,-8546,18,-238,190,321,4,-1,5168,0,185,42,2455,0,-1,0,0,-1,400,56.0,19704.0,81.5,90.96,-1,
 430025,-848,32,-8538,-42,-284,346,321,-1,-3,5176,-1,188,55,2455,0,-1,0,0,-1,400,56.0,19721.0,81.5,91.94,-1,
 430045,-52,940,-7874,-49,-204,425,322,2,4,5176,-3,188,48,2455,0,-1,0,0,-1,400,56.0,19738.0,81.61,93.09,-1,
 430055,70,1844,-7746,-20,-102,404,321,0,2,5168,-2,191,65,2454,0,-1,0,0,-1,400,56.0,19770.0,81.61,94.72,-1,
 430095,-458,416,-8416,-43,266,213,322,0,2,5160,-1,183,68,2456,0,-1,0,0,-1,400,56.0,19787.0,81.61,94.87,-1,
 430105,-426,460,-8642,-15,124,273,320,-7,-6,5168,-2,188,47,2455,0,-1,0,0,-1,400,56.0,19804.0,81.61,94.72,-1,
 430125,-340,1158,-8434,-3,19,286,321,2,-3,5160,-3,188,40,2455,0,-1,0,0,-1,400,56.0,19821.0,81.61,94.42,-1,
 430145,-50,1330,-8476,-3,-4,256,323,2,8,5160,-2,189,60,2456,0,-1,0,0,-1,400,56.0,19853.0,81.61,92.23,-1,
 430175,-738,-690,-8276,-9,-81,155,322,3,-1,5168,0,187,70,2455,0,-1,0,0,-1,400,56.0,19871.0,81.61,91.24,-1,
 430185,-514,-1170,-8166,-12,-69,74,323,-1,4,5160,4,192,60,2455,0,-1,0,0,-1,400,56.0,19887.0,81.61,90.41,-1,
 430205,-364,-490,-8320,7,-73,9,323,5,0,5168,2,192,64,2455,0,-1,0,0,-1,400,56.0,19904.0,81.61,89.46,-1,
 430215,-312,-260,-8208,11,-33,-9,321,0,-3,5168,1,188,54,2456,0,-1,0,0,-1,400,56.0,19920.0,81.61,88.66,-1,
 430235,-508,-798,-8334,-9,-81,10,322,1,-2,5168,0,185,47,2455,0,-1,0,0,-1,400,56.0,19937.0,81.61,88.0,-1,
 430255,-496,-1070,-8186,-6,-126,25,323,6,4,5168,-1,188,63,2455,0,-1,0,0,-1,400,56.0,19954.0,81.61,87.36,-1,
 430275,-602,-500,-8564,-98,-68,12,323,0,-1,5168,0,187,65,2454,0,-1,0,0,-1,400,56.0,19970.0,81.61,86.98,-1,
 430295,-432,-1156,-8284,-91,-49,-18,323,-4,2,5152,-2,187,66,2455,0,-1,0,0,-1,400,56.0,19987.0,81.61,86.6,-1,
 430305,-474,-1110,-8170,-53,-56,-21,324,3,0,5168,1,189,47,2455,0,-1,0,0,-1,400,56.0,20003.0,81.61,86.22,-1,
 430315,-512,-620,-8392,-23,-33,8,324,0,3,5168,1,188,42,2455,0,-1,0,0,-1,400,56.0,20020.0,81.61,86.22,-1,
 430325,-502,-348,-8336,-15,-21,23,323,-12,2,5168,-4,188,69,2454,0,-1,0,0,-1,400,56.0,20020.0,81.61,86.22,-1,
 430335,-466,-544,-8220,-3,5,21,323,-6,-1,5168,-4,191,79,2455,0,-1,0,0,-1,400,56.0,20053.0,81.61,86.47,-1,
 430355,-426,-622,-8350,17,71,10,323,1,1,5168,1,190,67,2455,0,-1,0,0,-1,400,56.0,20087.0,81.61,87.1,-1,
 430375,-530,-634,-8376,25,68,35,323,5,0,5168,1,191,79,2455,0,-1,0,0,-1,400,56.0,20103.0,81.61,87.87,-1,
 430405,-340,-1530,-8256,-33,1,104,322,-3,5,5168,3,189,94,2455,0,-1,0,0,-1,400,56.0,20120.0,81.61,88.66,-1,
 430425,-334,-932,-8306,-12,-87,53,322,1,4,5176,0,191,121,2455,0,-1,0,0,-1,400,56.0,20136.0,81.61,89.59,-1,
 430455,-656,-442,-8442,-28,-133,35,323,9,4,5168,0,191,83,2454,0,-1,0,0,-1,400,56.0,20152.0,81.61,90.96,-1,
 430465,-912,-66,-8326,-55,-170,71,321,-6,0,5160,1,186,59,2454,0,-1,0,0,-1,400,56.0,20170.0,81.61,92.23,-1,
 430485,-732,1632,-8364,-107,-121,186,322,-3,-4,5160,0,187,86,2454,0,-1,0,0,-1,400,56.0,20186.0,81.73,93.24,-1,
 430495,-758,1888,-8182,-123,-95,273,321,-7,1,5168,-2,189,63,2455,0,-1,0,0,-1,400,56.0,20203.0,81.73,94.42,-1,
 430505,-774,1696,-8238,-127,-62,394,323,4,3,5168,0,191,76,2455,0,-1,0,0,-1,400,56.0,20219.0,81.73,94.87,-1,
 430515,-884,1242,-8206,-125,-47,448,322,2,-3,5168,5,193,79,2455,0,-1,0,0,-1,400,56.0,20236.0,81.73,95.02,-1,
 430525,-466,-234,-8138,-104,-33,490,322,3,0,5168,-4,195,96,2454,0,-1,0,0,-1,400,56.0,20253.0,81.73,95.33,-1,
 430555,14,100,-8164,-44,-97,399,321,-11,3,5168,-1,189,60,2454,0,-1,0,0,-1,400,56.0,20269.0,81.73,95.33,-1,
 430595,-452,838,-7900,41,166,186,322,6,1,5152,-1,182,43,2454,0,-1,0,0,-1,400,56.0,20286.0,81.73,95.17,-1,
 430605,-500,1210,-7942,129,99,225,322,-1,2,5168,-1,185,49,2454,0,-1,0,0,-1,400,56.0,20303.0,81.61,94.87,-1,
 430615,-440,1178,-8016,162,141,251,321,-3,3,5168,2,184,53,2454,0,-1,0,0,-1,400,56.0,20319.0,81.73,94.42,-1,
 430625,-282,1132,-8508,194,102,253,321,-4,1,5160,0,185,71,2455,0,-1,0,0,-1,400,56.0,20336.0,81.73,93.53,-1,
 430655,-726,144,-8792,-17,-188,193,323,4,0,5168,5,188,46,2454,0,-1,0,0,-1,400,56.0,20352.0,81.73,92.51,-1,
 430665,-270,-1132,-8162,-55,-196,96,322,0,0,5168,0,189,54,2454,0,-1,0,0,-1,400,56.0,20368.0,81.61,91.1,-1,
 430675,44,-1436,-8036,-16,-241,23,324,7,-1,5160,0,188,49,2455,0,-1,0,0,-1,400,56.0,20386.0,81.73,89.86,-1,
 430705,-356,556,-8166,24,-585,-161,323,2,-3,5168,2,192,56,2454,0,-1,0,0,-1,400,56.0,20402.0,81.73,88.79,-1,
 430725,-692,-914,-10150,41,-339,-322,324,3,-3,5152,0,186,52,2455,0,-1,0,0,-1,400,56.0,20419.0,81.61,87.61,-1,
 430735,-186,-1250,-7242,-27,-197,-301,324,1,-3,5168,0,187,54,2456,0,-1,0,0,-1,400,56.0,20435.0,81.61,86.72,-1,
 430755,-236,-1122,-8164,-37,14,-386,323,-2,-4,5168,-1,187,42,2455,0,-1,0,0,-1,400,56.0,20452.0,81.73,86.22,-1,
 430765,-480,-1200,-8122,-50,126,-372,323,-2,-2,5168,1,185,19,2455,0,-1,0,0,-1,400,56.0,20469.0,81.61,85.72,-1,
 430785,-480,-1210,-8156,-22,106,-339,323,1,0,5168,4,187,27,2456,0,-1,0,0,-1,400,56.0,20485.0,81.61,85.6,-1,
 430805,-810,-302,-8274,-4,133,-266,322,4,-4,5168,2,182,30,2455,0,-1,0,0,-1,400,56.0,20502.0,81.61,85.48,-1,
 430815,-1056,-80,-8460,-16,72,-204,322,-3,-3,5160,-2,180,25,2455,0,-1,0,0,-1,400,56.0,20518.0,81.61,85.72,-1,
 430825,-970,-154,-8438,-34,-45,-103,324,4,1,5160,1,183,41,2455,0,-1,0,0,-1,400,56.0,20535.0,81.61,85.85,-1,
 430845,-796,-472,-8258,-55,-135,40,323,0,-1,5160,-2,187,78,2455,0,-1,0,0,-1,400,56.0,20552.0,81.61,86.1,-1,
 430855,-688,-296,-8360,-55,-145,83,323,0,2,5168,1,191,59,2455,0,-1,0,0,-1,400,56.0,20568.0,81.61,86.47,-1,
 430865,-634,-230,-8260,-5,-120,111,324,10,4,5176,-2,194,62,2455,0,-1,0,0,-1,400,56.0,20585.0,81.61,86.98,-1,
 430895,-740,-166,-8410,-8,-40,159,323,-2,0,5160,-1,189,69,2455,0,-1,0,0,-1,400,56.0,20602.0,81.61,87.49,-1,
 430905,-738,-882,-8412,3,-94,205,322,-5,-3,5168,-1,189,79,2454,0,-1,0,0,-1,400,56.0,20618.0,81.61,88.39,-1,
 430935,-368,-1292,-8322,13,222,378,321,4,2,5168,2,187,83,2455,0,-1,0,0,-1,400,56.0,20635.0,81.61,89.32,-1,
 430945,-324,-1002,-8160,21,279,363,321,1,4,5168,-3,188,70,2454,0,-1,0,0,-1,400,56.0,20651.0,81.61,90.41,-1,
 430955,-410,-512,-8292,19,193,362,320,-4,-3,5168,-2,190,72,2454,0,-1,0,0,-1,400,56.0,20667.0,81.73,92.23,-1,
 430965,-668,780,-8362,-18,60,382,321,-3,-3,5168,0,189,64,2455,0,-1,0,0,-1,400,56.0,20685.0,81.61,93.53,-1,
 431015,-368,266,-8634,-182,-84,400,321,0,-4,5168,2,189,102,2455,0,-1,0,0,-1,400,56.0,20718.0,81.73,95.63,-1,
 431035,-436,542,-8304,-267,-33,355,321,-1,0,5168,-1,188,45,2454,0,-1,0,0,-1,400,56.0,20734.0,81.61,95.94,-1,
 431055,-568,-172,-7984,-216,-40,382,321,-7,6,5160,0,188,73,2454,0,-1,0,0,-1,400,56.0,20751.0,81.73,96.09,-1,
 431065,-630,-152,-7928,-127,-74,402,322,5,-1,5168,-2,184,67,2454,0,-1,0,0,-1,400,56.0,20768.0,81.73,96.09,-1,
 431085,-546,-70,-8066,-22,-144,457,322,0,0,5176,4,185,80,2454,0,-1,0,0,-1,400,56.0,20784.0,81.73,96.09,-1,
 431095,-418,-14,-8062,2,-135,458,321,-1,-4,5168,0,184,79,2454,0,-1,0,0,-1,400,56.0,20801.0,81.61,96.25,-1,
 431115,-298,928,-7896,70,-74,354,321,-4,-3,5168,0,186,80,2454,0,-1,0,0,-1,400,56.0,20817.0,81.73,95.94,-1,
 431135,118,870,-7526,177,71,196,323,-2,3,5160,-2,185,92,2455,0,-1,0,0,-1,400,56.0,20834.0,81.73,95.48,-1,
 431165,-52,632,-7808,456,-182,60,323,-1,2,5168,0,191,87,2455,0,-1,0,0,-1,400,56.0,20867.0,81.73,93.24,-1,
 431185,-1248,-630,-10654,-391,-166,-1,323,0,3,5168,0,191,89,2454,0,-1,0,0,-1,400,56.0,20884.0,81.73,91.94,-1,
 431205,-460,-1808,-8000,-31,-299,-171,323,8,3,5168,0,188,62,2455,0,-1,0,0,-1,400,56.0,20901.0,81.73,90.82,-1,
 431215,-122,-1444,-7990,-59,-68,-281,322,-5,-1,5160,1,190,71,2455,0,-1,0,0,-1,400,56.0,20917.0,81.73,89.59,-1,
 431225,-74,-1082,-8552,5,17,-355,323,0,-3,5176,-3,191,91,2455,0,-1,0,0,-1,400,56.0,20934.0,81.73,88.79,-1,
 431255,-784,-416,-8294,-39,-75,-290,323,5,-1,5168,0,186,93,2454,0,-1,0,0,-1,400,56.0,20950.0,81.73,88.13,-1,
 431265,-942,-406,-8274,-28,-76,-215,323,-7,-2,5168,-2,186,103,2455,0,-1,0,0,-1,400,56.0,20966.0,81.73,87.74,-1,
 431285,-796,-494,-8166,-27,-8,-91,322,-2,2,5168,0,187,116,2455,0,-1,0,0,-1,400,56.0,20984.0,81.61,87.1,-1,
 431295,-676,-590,-8204,-28,8,-59,323,0,-2,5168,-3,191,120,2455,0,-1,0,0,-1,400,56.0,21000.0,81.73,86.72,-1,
 431315,-624,-296,-8294,-22,-3,32,324,6,1,5168,-2,194,74,2454,0,-1,0,0,-1,400,56.0,21017.0,81.73,86.47,-1,
 431335,-508,-222,-8274,-25,30,44,321,-4,0,5160,0,192,80,2455,0,-1,0,0,-1,400,56.0,21033.0,81.61,86.22,-1,
 431365,-386,-564,-8370,-22,-28,14,322,0,3,5176,1,191,92,2455,0,-1,0,0,-1,400,56.0,21083.0,81.61,86.35,-1,
 431405,-370,-298,-8302,-23,-55,-53,322,2,-5,5160,-5,188,75,2454,0,-1,0,0,-1,400,56.0,21100.0,81.61,86.72,-1,
 431415,-490,-132,-8312,-18,-52,-67,322,-4,-2,5168,2,189,71,2455,0,-1,0,0,-1,400,56.0,21116.0,81.73,87.23,-1,
 431435,-710,-98,-8304,-23,-66,-41,324,7,-1,5160,1,186,52,2455,0,-1,0,0,-1,400,56.0,21133.0,81.73,87.74,-1,
 431445,-818,-372,-8292,-15,-101,10,321,-7,-1,5160,0,184,46,2454,0,-1,0,0,-1,400,56.0,21150.0,81.73,88.39,-1,
 431455,-778,-550,-8282,-15,-113,52,321,-10,-1,5160,1,186,48,2455,0,-1,0,0,-1,400,56.0,21166.0,81.61,89.19,-1,
 431485,-684,272,-8002,-57,12,219,322,7,0,5160,6,192,108,2454,0,-1,0,0,-1,400,56.0,21183.0,81.73,90.41,-1,
 431505,-672,-70,-8188,20,-13,247,322,4,5,5160,1,191,84,2454,0,-1,0,0,-1,400,56.0,21200.0,81.61,91.24,-1,
 431525,-668,-176,-8632,-41,-84,308,321,3,4,5168,-3,188,71,2454,0,-1,0,0,-1,400,56.0,21216.0,81.61,92.08,-1,
 431535,-676,-238,-8716,-76,-98,330,321,2,-2,5160,2,186,44,2455,0,-1,0,0,-1,400,56.0,21233.0,81.73,93.24,-1,
 431555,-512,-106,-8606,-200,-88,367,320,-1,-1,5160,-3,192,69,2454,0,-1,0,0,-1,400,56.0,21249.0,81.73,94.12,-1,
 431575,-508,712,-8032,-238,-182,345,320,-5,0,5168,-2,185,50,2455,0,-1,0,0,-1,400,56.0,21265.0,81.73,94.87,-1,
 431585,-146,-1806,-8222,-207,-107,286,321,6,-2,5160,2,180,42,2454,0,-1,0,0,-1,400,56.0,21283.0,81.73,95.33,-1,
 431605,-342,28,-8064,-121,-79,198,322,7,-4,5160,-2,182,39,2454,0,-1,0,0,-1,400,56.0,21299.0,81.73,95.63,-1,
 431615,-368,-66,-8282,-118,-74,177,321,0,-5,5160,2,182,41,2454,0,-1,0,0,-1,400,56.0,21316.0,81.73,95.78,-1,
 431625,-400,24,-8250,-102,-71,159,322,2,1,5168,1,180,33,2455,0,-1,0,0,-1,400,56.0,21349.0,81.73,95.48,-1,
 431635,-390,118,-8052,-97,-41,137,321,-5,0,5160,2,182,25,2454,0,-1,0,0,-1,400,56.0,21366.0,81.73,95.17,-1,
 431655,-488,408,-7746,1,-7,74,322,0,-2,5168,1,185,29,2454,0,-1,0,0,-1,400,56.0,21382.0,81.73,94.27,-1,
 431695,-246,-64,-7748,391,28,-48,321,0,2,5168,0,188,80,2454,0,-1,0,0,-1,400,56.0,21399.0,81.73,93.53,-1,
 431715,2576,372,-13700,149,1001,-137,323,3,-1,5160,-5,184,66,2454,0,-1,0,0,-1,400,56.0,21416.0,81.73,92.66,-1,
 431725,-508,1076,-9698,7,-160,-76,323,5,3,5168,-1,183,47,2455,0,-1,0,0,-1,400,56.0,21432.0,81.73,91.38,-1,
 431755,-332,-328,-8152,-63,-103,22,321,-4,-1,5168,1,185,4,2454,0,-1,0,0,-1,400,56.0,21449.0,81.73,90.54,-1,
 431765,-374,-462,-7934,-8,-119,2,322,-1,2,5168,-2,183,-2,2455,0,-1,0,0,-1,400,56.0,21465.0,81.73,89.59,-1,
 431785,-682,-672,-8092,-52,139,-76,321,-5,-1,5168,3,183,34,2455,0,-1,0,0,-1,400,56.0,21482.0,81.73,88.53,-1,
 431795,-382,-8,-8638,-34,36,-92,323,-2,2,5160,-1,186,37,2455,0,-1,0,0,-1,400,56.0,21499.0,81.73,87.74,-1,
 431815,-440,-386,-8192,-24,-51,-92,322,0,-4,5160,-4,194,52,2455,0,-1,0,0,-1,400,56.0,21515.0,81.73,87.1,-1,
 431825,-448,-288,-8200,-20,-21,-95,324,0,7,5168,-1,193,76,2455,0,-1,0,0,-1,400,56.0,21532.0,81.73,86.35,-1,
 431855,-568,-406,-8308,-25,22,-62,323,6,-3,5168,1,190,49,2455,0,-1,0,0,-1,400,56.0,21548.0,81.61,85.97,-1,
 431865,-568,-392,-8302,-28,27,-48,323,0,0,5168,4,192,87,2454,0,-1,0,0,-1,400,56.0,21566.0,81.61,85.72,-1,
 431885,-412,-424,-8298,-30,-8,-63,324,0,0,5168,2,188,60,2454,0,-1,0,0,-1,400,56.0,21582.0,81.73,85.6,-1,
 431905,-478,-602,-8286,-25,2,-82,322,0,2,5168,1,187,50,2455,0,-1,0,0,-1,400,56.0,21598.0,81.61,85.6,-1,
 431915,-464,-302,-8358,-22,-6,-85,321,-8,-3,5160,0,187,66,2455,0,-1,0,0,-1,400,56.0,21615.0,81.73,85.85,-1,
 431935,-442,-280,-8338,-23,-49,-69,322,0,-2,5168,0,188,47,2455,0,-1,0,0,-1,400,56.0,21631.0,81.73,86.22,-1,
 431945,-456,-226,-8278,-21,-67,-71,323,0,0,5168,-1,186,28,2455,0,-1,0,0,-1,400,56.0,21648.0,81.61,86.72,-1,
 431965,-568,-150,-8292,-21,-58,-79,322,0,-2,5160,0,190,40,2454,0,-1,0,0,-1,400,56.0,21665.0,81.73,87.36,-1,
 431975,-650,24,-8268,-24,-56,-68,322,0,0,5184,-3,191,25,2455,0,-1,0,0,-1,400,56.0,21681.0,81.73,88.0,-1,
 431985,-742,116,-8264,-18,-58,-29,323,-1,0,5168,4,195,60,2455,0,-1,0,0,-1,400,56.0,21698.0,81.73,88.66,-1,
 432005,-724,118,-8286,-20,-53,32,321,-2,2,5168,-1,194,62,2453,0,-1,0,0,-1,400,56.0,21715.0,81.61,89.46,-1,
 432035,-866,1176,-8386,-4,-91,106,323,6,5,5168,-3,187,67,2454,0,-1,0,0,-1,400,56.0,21731.0,81.73,90.41,-1,
 432055,-580,-188,-8220,-36,-34,126,322,5,2,5176,1,191,70,2454,0,-1,0,0,-1,400,56.0,21748.0,81.61,91.24,-1,
 432065,-602,-184,-8184,-25,-26,157,321,1,0,5168,0,191,80,2454,0,-1,0,0,-1,400,56.0,21764.0,81.61,92.23,-1,
 432075,-624,-144,-8216,-11,-25,170,321,3,0,5168,-1,188,63,2454,0,-1,0,0,-1,400,56.0,21781.0,81.73,93.24,-1,
 432085,-616,-168,-8426,-4,-55,180,321,3,2,5168,2,182,44,2454,0,-1,0,0,-1,400,56.0,21814.0,81.73,95.17,-1,
 432125,-756,-20,-8592,-211,-148,344,321,5,0,5160,4,187,66,2455,0,-1,0,0,-1,400,56.0,21831.0,81.73,95.63,-1,
 432145,-602,1074,-8054,-241,-78,379,322,2,-1,5184,-1,189,90,2455,0,-1,0,0,-1,400,56.0,21847.0,81.73,95.63,-1,
 432155,-506,744,-7784,-210,-29,389,321,0,0,5168,0,191,113,2454,0,-1,0,0,-1,400,56.0,21881.0,81.73,95.17,-1,
 432175,-418,544,-7468,6,39,319,323,0,-3,5168,0,194,112,2454,0,-1,0,0,-1,400,56.0,21897.0,81.73,94.87,-1,
 432195,-346,-744,-7460,278,9,267,322,-1,2,5168,-1,196,94,2454,0,-1,0,0,-1,400,56.0,21914.0,81.73,94.42,-1,
 432225,-584,1808,-10628,-125,297,-13,322,1,-4,5168,-4,187,63,2455,0,-1,0,0,-1,400,56.0,21947.0,81.61,92.8,-1,
 432235,-544,140,-9712,9,-338,69,322,-6,2,5168,1,186,50,2455,0,-1,0,0,-1,400,56.0,21964.0,81.61,91.94,-1,
 432265,-380,34,-8158,-19,-4,-35,322,0,0,5168,0,184,85,2454,0,-1,0,0,-1,400,56.0,22014.0,81.73,88.79,-1,
 432315,-508,-268,-8272,-21,-33,-52,323,2,5,5168,1,189,43,2455,0,-1,0,0,-1,400,56.0,22030.0,81.73,87.87,-1,
 432325,-560,-488,-8270,-18,-60,-31,324,-2,-4,5176,2,187,69,2454,0,-1,0,0,-1,400,56.0,22047.0,81.73,87.23,-1,
 432345,-548,-184,-8334,-18,-81,-13,324,7,-1,5168,-4,188,103,2454,0,-1,0,0,-1,400,56.0,22063.0,81.73,86.72,-1,
 432365,-386,-436,-8240,-23,-17,-35,323,0,0,5160,0,185,99,2455,0,-1,0,0,-1,400,56.0,22081.0,81.73,86.47,-1,
 432375,-362,-258,-8258,-24,-5,-50,323,0,-1,5168,1,183,78,2455,0,-1,0,0,-1,400,56.0,22097.0,81.73,86.22,-1,
 432405,-406,-338,-8376,-27,12,-104,322,3,-1,5168,-3,192,82,2455,0,-1,0,0,-1,400,56.0,22113.0,81.73,86.35,-1,
 432415,-494,-204,-8410,-27,-20,-112,323,3,-6,5168,2,191,79,2455,0,-1,0,0,-1,400,56.0,22130.0,81.73,86.47,-1,
 432425,-612,-182,-8338,-26,-64,-95,322,5,-1,5168,0,188,89,2454,0,-1,0,0,-1,400,56.0,22146.0,81.61,86.85,-1,
 432455,-656,-12,-8234,-21,-50,-45,324,8,-3,5168,-2,189,44,2454,0,-1,0,0,-1,400,56.0,22164.0,81.61,87.23,-1,
 432475,-824,236,-8262,-14,-31,23,323,-5,0,5176,-4,186,73,2454,0,-1,0,0,-1,400,56.0,22180.0,81.61,87.61,-1,
 432485,-720,104,-8254,-15,-30,63,323,6,4,5168,1,186,93,2454,0,-1,0,0,-1,400,56.0,22196.0,81.73,88.39,-1,
 432505,-714,-120,-8322,-14,-40,113,322,0,-4,5168,-1,187,47,2454,0,-1,0,0,-1,400,56.0,22213.0,81.73,89.06,-1,
 432525,-672,-252,-8244,-12,-57,186,322,-2,0,5168,0,182,41,2454,0,-1,0,0,-1,400,56.0,22230.0,81.73,89.73,-1,
 432545,-668,-194,-8226,-4,-16,243,322,-5,-4,5168,-3,184,79,2454,0,-1,0,0,-1,400,56.0,22246.0,81.73,90.82,-1,
 432565,-580,198,-8338,-13,-6,282,322,0,-2,5160,2,189,55,2455,0,-1,0,0,-1,400,56.0,22263.0,81.73,91.52,-1,
 432575,-880,602,-8446,-1,-58,305,321,0,-3,5168,1,186,53,2455,0,-1,0,0,-1,400,56.0,22279.0,81.61,92.51,-1,
 432595,-1018,36,-8206,3,-60,444,322,-2,-2,5168,0,186,54,2455,0,-1,0,0,-1,400,56.0,22296.0,81.73,93.68,-1,
 432605,-1120,204,-8356,-19,-33,551,322,-7,-4,5168,0,187,62,2454,0,-1,0,0,-1,400,56.0,22313.0,81.73,94.42,-1,
 432615,-1148,214,-8336,-23,-46,633,322,-2,-4,5168,0,192,80,2454,0,-1,0,0,-1,400,56.0,22329.0,81.61,95.02,-1,
 432625,-992,202,-8172,-12,-36,754,322,-3,-1,5168,-5,194,90,2454,0,-1,0,0,-1,400,56.0,22346.0,81.61,95.48,-1,
 432655,-728,-152,-8232,20,-13,827,323,-3,1,5168,0,187,56,2455,0,-1,0,0,-1,400,56.0,22380.0,81.61,95.78,-1,
 432675,-184,-550,-8318,11,-4,803,323,1,-3,5168,2,186,73,2455,0,-1,0,0,-1,400,56.0,22396.0,81.61,95.78,-1,
 432705,150,-578,-8306,-42,-9,512,323,2,6,5168,4,189,70,2455,0,-1,0,0,-1,400,56.0,22412.0,81.61,95.63,-1,
 432725,248,-306,-8184,-23,-26,282,322,-4,-4,5176,-1,185,99,2455,0,-1,0,0,-1,400,56.0,22429.0,81.61,95.48,-1,
 432745,66,256,-7970,47,-2,68,323,0,-2,5160,0,189,101,2455,0,-1,0,0,-1,400,56.0,22446.0,81.61,95.02,-1,
 432755,-52,404,-8148,85,-19,1,324,-3,-2,5168,1,189,83,2455,0,-1,0,0,-1,400,56.0,22463.0,81.61,94.42,-1,
 432765,-326,778,-8628,58,-29,-50,324,5,-1,5168,0,187,90,2455,0,-1,0,0,-1,400,56.0,22479.0,81.61,93.82,-1,
 432785,-442,212,-8480,1,-72,-67,324,6,3,5168,3,184,70,2455,0,-1,0,0,-1,400,56.0,22495.0,81.61,92.66,-1,
 432815,-326,-484,-8120,21,-66,-99,322,-7,0,5160,-1,191,63,2455,0,-1,0,0,-1,400,56.0,22512.0,81.61,91.66,-1,
 432825,-380,-112,-8400,-24,-17,-145,323,-7,-7,5168,-2,188,72,2455,0,-1,0,0,-1,400,56.0,22529.0,81.73,90.68,-1,
 432845,-482,-330,-8310,-22,-71,-163,325,5,2,5160,0,185,67,2455,0,-1,0,0,-1,400,56.0,22545.0,81.61,89.46,-1,
 432865,-300,-948,-8260,-32,-64,-175,323,-2,-2,5168,1,188,43,2455,0,-1,0,0,-1,400,56.0,22578.0,81.61,87.74,-1,
 432885,-408,-8,-8294,-34,-44,-196,323,0,-3,5168,1,186,55,2455,0,-1,0,0,-1,400,56.0,22596.0,81.61,87.23,-1,
 432895,-432,-410,-8304,-38,-35,-207,323,-3,7,5160,-2,187,89,2455,0,-1,0,0,-1,400,56.0,22628.0,81.61,86.47,-1,
 432935,-394,-232,-8260,-34,-25,-284,322,-4,-5,5168,-1,188,83,2454,0,-1,0,0,-1,400,56.0,22645.0,81.61,86.47,-1,
 432955,-496,-234,-8308,-39,-34,-285,322,-6,1,5176,-1,185,54,2455,0,-1,0,0,-1,400,56.0,22661.0,81.61,86.6,-1,
 432975,-690,-312,-8274,-36,-40,-242,323,3,1,5168,-1,190,73,2454,0,-1,0,0,-1,400,56.0,22679.0,81.61,86.85,-1,
 432995,-862,78,-8276,-28,-47,-153,323,2,6,5160,3,189,90,2454,0,-1,0,0,-1,400,56.0,22695.0,81.61,87.23,-1,
 433015,-922,2,-8254,-23,-49,-11,323,0,-1,5160,-1,189,65,2455,0,-1,0,0,-1,400,56.0,22711.0,81.61,87.87,-1,
 433025,-944,-74,-8256,-18,-39,71,322,2,0,5160,-1,186,61,2455,0,-1,0,0,-1,400,56.0,22728.0,81.61,88.53,-1,
 433045,-638,-350,-8250,-11,-23,164,321,-4,-1,5168,0,185,47,2455,0,-1,0,0,-1,400,56.0,22745.0,81.61,89.19,-1,
 433055,-652,-84,-8312,-11,-30,187,323,5,3,5168,-1,188,62,2454,0,-1,0,0,-1,400,56.0,22762.0,81.61,90.0,-1,
 433065,-654,84,-8288,-3,-66,199,322,-1,1,5160,-1,187,62,2455,0,-1,0,0,-1,400,56.0,22778.0,81.61,90.54,-1,
 433095,-670,-186,-8238,-5,-70,253,323,7,3,5168,0,187,63,2455,0,-1,0,0,-1,400,56.0,22794.0,81.61,91.24,-1,
 433115,-662,-220,-8336,-39,-24,304,321,-4,-5,5168,3,190,45,2455,0,-1,0,0,-1,400,56.0,22811.0,81.73,92.23,-1,
 433125,-646,-168,-8310,-43,-31,337,322,1,-3,5168,-3,190,49,2454,0,-1,0,0,-1,400,56.0,22828.0,81.73,92.95,-1,
 433145,-468,-96,-8398,-50,-58,352,322,1,0,5152,0,188,73,2455,0,-1,0,0,-1,400,56.0,22845.0,81.73,93.53,-1,
 433165,-414,-120,-8540,-111,-64,335,321,-3,-7,5168,1,188,59,2455,0,-1,0,0,-1,400,56.0,22861.0,81.73,94.27,-1,
 433175,-368,-132,-8590,-156,-41,317,323,3,-3,5160,-6,186,47,2455,0,-1,0,0,-1,400,56.0,22877.0,81.61,94.87,-1,
 433195,-422,-126,-8542,-278,10,289,323,0,2,5160,0,185,33,2455,0,-1,0,0,-1,400,56.0,22895.0,81.73,95.17,-1,
 433215,-492,-52,-8178,-269,-18,281,322,1,4,5168,2,186,44,2454,0,-1,0,0,-1,400,56.0,22911.0,81.61,95.48,-1,
 433235,-384,46,-7734,-122,-43,253,323,-5,2,5168,2,185,68,2455,0,-1,0,0,-1,400,56.0,22927.0,81.73,95.48,-1,
 433245,-170,98,-7534,9,-69,195,323,2,-4,5160,0,185,55,2454,0,-1,0,0,-1,400,56.0,22944.0,81.61,95.33,-1,
 433265,82,210,-7448,269,-54,33,323,-2,-1,5160,-2,189,70,2454,0,-1,0,0,-1,400,56.0,22961.0,81.61,94.72,-1,
 433275,-20,118,-7474,377,-48,-36,323,3,2,5160,-2,188,75,2455,0,-1,0,0,-1,400,56.0,22978.0,81.61,94.27,-1,
 433285,-224,60,-7610,521,-42,-104,323,-6,-4,5168,6,187,78,2455,0,-1,0,0,-1,400,56.0,22994.0,81.61,93.38,-1,
 433295,-252,-16,-7812,585,-12,-144,323,6,3,5160,-4,186,77,2455,0,-1,0,0,-1,400,56.0,23027.0,81.61,91.38,-1,
 433315,-350,56,-9140,-21,-206,-117,323,-12,1,5160,0,189,56,2455,0,-1,0,0,-1,400,56.0,23044.0,81.61,90.41,-1,
 433335,-444,46,-8340,-45,-193,-114,324,3,-1,5168,0,190,45,2455,0,-1,0,0,-1,400,56.0,23061.0,81.61,89.32,-1,
 433365,-772,170,-8462,-24,-6,-244,324,0,0,5168,-2,185,79,2455,0,-1,0,0,-1,400,56.0,23077.0,81.61,88.53,-1,
 433385,-496,-716,-8366,-31,-70,-209,325,11,-4,5168,3,184,82,2456,0,-1,0,0,-1,400,56.0,23093.0,81.73,87.87,-1,
 433415,-496,-632,-8218,-35,-28,-152,323,3,1,5168,1,184,49,2455,0,-1,0,0,-1,400,56.0,23111.0,81.61,87.36,-1,
 433425,-440,-576,-8272,-32,-3,-138,323,5,4,5152,-3,187,28,2454,0,-1,0,0,-1,400,56.0,23144.0,81.61,87.1,-1,
 433455,-618,-384,-8274,-27,-24,-111,323,3,-5,5168,-1,186,25,2454,0,-1,0,0,-1,400,56.0,23160.0,81.61,87.36,-1,
 433475,-708,-286,-8338,-27,-20,-69,323,4,3,5160,0,189,60,2456,0,-1,0,0,-1,400,56.0,23177.0,81.61,87.61,-1,
 433485,-704,-58,-8354,-20,-35,-31,321,-13,0,5160,3,190,62,2455,0,-1,0,0,-1,400,56.0,23194.0,81.73,88.0,-1,
 433495,-698,-152,-8318,-15,-57,-4,322,-1,-4,5168,0,191,50,2455,0,-1,0,0,-1,400,56.0,23210.0,81.61,88.53,-1,
 433525,-648,-36,-8214,-23,-29,61,322,-2,3,5160,2,189,88,2455,0,-1,0,0,-1,400,56.0,23226.0,81.73,89.06,-1,
 433535,-648,-28,-8274,-19,-15,74,322,-2,0,5176,3,183,84,2455,0,-1,0,0,-1,400,56.0,23243.0,81.73,89.46,-1,
 433555,-638,-158,-8372,-12,-54,104,322,-6,7,5168,-1,191,128,2455,0,-1,0,0,-1,400,56.0,23277.0,81.73,90.54,-1,
 433575,-556,-328,-8386,-42,-78,126,322,-6,2,5160,-1,187,93,2455,0,-1,0,0,-1,400,56.0,23293.0,81.61,91.24,-1,
 433595,-620,198,-8246,-59,-50,157,322,0,1,5160,-1,186,47,2454,0,-1,0,0,-1,400,56.0,23309.0,81.61,92.23,-1,
 433615,-642,266,-8240,-51,-27,209,322,0,-1,5168,1,188,54,2454,0,-1,0,0,-1,400,56.0,23327.0,81.61,93.09,-1,
 433625,-592,-148,-8268,-50,-23,220,322,0,3,5168,2,187,54,2454,0,-1,0,0,-1,400,56.0,23343.0,81.73,93.97,-1,
 433635,-568,-164,-8400,-49,-42,227,321,-7,0,5168,-2,188,68,2454,0,-1,0,0,-1,400,56.0,23360.0,81.61,95.02,-1,
 433665,-546,-126,-8456,-142,-53,262,323,1,3,5168,1,189,101,2455,0,-1,0,0,-1,400,56.0,23376.0,81.73,95.63,-1,
 433695,-606,360,-8330,-180,-55,283,323,6,-2,5168,-1,185,55,2455,0,-1,0,0,-1,400,56.0,23393.0,81.73,96.09,-1,
 433705,-548,-78,-8196,-178,-48,298,321,-3,-1,5160,0,186,47,2455,0,-1,0,0,-1,400,56.0,23410.0,81.73,96.25,-1,
 433715,-514,-294,-8172,-159,-48,293,322,-2,-2,5160,-2,184,45,2454,0,-1,0,0,-1,400,56.0,23443.0,81.73,95.63,-1,
 433755,-162,-40,-7846,1,-56,201,322,-2,0,5160,2,188,76,2455,0,-1,0,0,-1,400,56.0,23459.0,81.61,95.02,-1,
 433775,12,-30,-7684,166,-25,44,322,-3,0,5168,1,192,78,2455,0,-1,0,0,-1,400,56.0,23476.0,81.61,94.42,-1,
 433795,-272,16,-7898,336,-20,-84,320,-6,-3,5160,1,196,95,2454,0,-1,0,0,-1,400,56.0,23493.0,81.61,93.68,-1,
 433805,-394,-50,-8058,411,-40,-107,322,-5,-2,5160,-3,193,80,2454,0,-1,0,0,-1,400,56.0,23509.0,81.61,92.95,-1,
 433835,-794,334,-8718,-10,-211,-73,323,0,-4,5176,-1,182,27,2454,0,-1,0,0,-1,400,56.0,23525.0,81.61,91.8,-1,
 433855,-408,-370,-8196,-67,-157,-77,324,2,3,5168,-1,186,52,2455,0,-1,0,0,-1,400,56.0,23559.0,81.61,90.13,-1,
 433885,-346,-68,-8254,3,-20,-176,322,-1,-2,5168,3,188,74,2455,0,-1,0,0,-1,400,56.0,23576.0,81.61,89.19,-1,
 433895,-436,-100,-8340,-3,-7,-187,322,2,-6,5168,0,191,66,2455,0,-1,0,0,-1,400,56.0,23592.0,81.61,88.53,-1,
 433905,-564,-186,-8522,-39,84,-181,323,2,1,5160,0,191,59,2454,0,-1,0,0,-1,400,56.0,23642.0,81.73,87.1,-1,
 433925,-812,-384,-8278,-30,28,-83,324,0,3,5168,-1,187,66,2455,0,-1,0,0,-1,400,56.0,23659.0,81.73,86.72,-1,
 433955,-744,-54,-8260,-21,-17,32,322,-4,1,5160,0,191,52,2455,0,-1,0,0,-1,400,56.0,23675.0,81.73,86.47,-1,
 433975,-520,-128,-8310,-19,4,52,323,5,1,5168,-2,192,37,2455,0,-1,0,0,-1,400,56.0,23692.0,81.61,86.47,-1,
 433985,-472,-170,-8354,-22,-18,53,322,-6,0,5160,0,188,44,2454,0,-1,0,0,-1,400,56.0,23709.0,81.73,86.47,-1,
 433995,-446,-122,-8334,-20,-38,54,324,-3,1,5168,0,193,78,2455,0,-1,0,0,-1,400,56.0,23725.0,81.73,86.6,-1,
 434045,-472,-132,-8330,-18,-37,50,324,4,3,5176,2,188,111,2455,0,-1,0,0,-1,400,56.0,23742.0,81.73,86.85,-1,
 434065,-498,-154,-8290,-18,-52,46,323,4,-1,5168,1,189,121,2455,0,-1,0,0,-1,400,56.0,23759.0,81.61,87.1,-1,
 434075,-554,-90,-8298,-10,-61,45,322,0,1,5160,-3,186,96,2455,0,-1,0,0,-1,400,56.0,23775.0,81.61,87.61,-1,
 434095,-510,-168,-8266,-20,-43,61,323,3,10,5168,-2,186,28,2455,0,-1,0,0,-1,400,56.0,23792.0,81.61,88.13,-1,
 434105,-510,-150,-8286,-18,-32,70,323,-2,4,5160,-2,188,32,2454,0,-1,0,0,-1,400,56.0,23808.0,81.61,88.79,-1,
 434145,-610,-130,-8260,-20,-56,83,322,-2,-2,5168,2,192,75,2455,0,-1,0,0,-1,400,56.0,23842.0,81.61,90.54,-1,
 434165,-598,-182,-8574,-48,-46,119,323,2,4,5168,5,190,71,2454,0,-1,0,0,-1,400,56.0,23858.0,81.61,91.52,-1,
 434175,-646,-234,-8504,-80,-46,141,322,0,1,5168,-1,187,72,2454,0,-1,0,0,-1,400,56.0,23908.0,81.61,94.42,-1,
 434195,-620,-168,-8294,-111,-41,185,322,6,3,5168,-1,191,58,2454,0,-1,0,0,-1,400,56.0,23925.0,81.61,95.17,-1,
 434225,-678,154,-8082,3,-56,243,322,-1,2,5168,0,182,41,2454,0,-1,0,0,-1,400,56.0,23941.0,81.61,95.63,-1,
 434245,-380,-278,-8470,-17,-64,248,323,4,2,5168,-3,183,18,2454,0,-1,0,0,-1,400,56.0,23958.0,81.61,95.78,-1,
 434265,-202,-76,-8540,-83,-79,190,320,-3,5,5168,-1,182,44,2454,0,-1,0,0,-1,400,56.0,23975.0,81.61,95.63,-1,
 434285,-118,20,-8300,-140,-61,85,322,1,2,5160,2,189,84,2454,0,-1,0,0,-1,400,56.0,23991.0,81.61,95.33,-1,
 434295,-64,56,-8134,-134,-51,27,322,-3,1,5168,-1,194,79,2454,0,-1,0,0,-1,400,56.0,24008.0,81.73,95.02,-1,
 434325,-240,68,-7558,129,0,-161,322,0,1,5168,1,191,52,2454,0,-1,0,0,-1,400,56.0,24024.0,81.61,94.27,-1,
 434335,-422,112,-7592,219,-6,-172,322,-8,-3,5152,1,186,58,2454,0,-1,0,0,-1,400,56.0,24042.0,81.61,93.53,-1,
 434355,-842,354,-9744,208,57,-151,321,-5,5,5168,2,182,60,2455,0,-1,0,0,-1,400,56.0,24058.0,81.61,92.8,-1,
 434365,-846,836,-8800,-37,-115,-40,323,9,2,5168,0,184,66,2456,0,-1,0,0,-1,400,56.0,24074.0,81.61,91.8,-1,
 434385,-526,-878,-8034,-37,-68,42,322,1,1,5168,4,186,84,2454,0,-1,0,0,-1,400,56.0,24091.0,81.61,90.96,-1,
 434415,-420,100,-8380,-20,10,-6,323,0,2,5168,1,191,74,2455,0,-1,0,0,-1,400,56.0,24107.0,81.61,90.13,-1,
 434425,-336,-254,-8428,-21,-46,-39,322,-7,0,5168,-2,188,49,2455,0,-1,0,0,-1,400,56.0,24125.0,81.61,88.92,-1,
 434435,-278,-596,-8352,-23,-57,-54,323,0,1,5168,0,186,36,2455,0,-1,0,0,-1,400,56.0,24141.0,81.61,88.13,-1,
 434455,-388,-124,-8248,-23,-40,-95,323,0,-1,5168,2,188,23,2455,0,-1,0,0,-1,400,56.0,24157.0,81.61,87.49,-1,
 434465,-436,-562,-8220,-29,-9,-110,322,-8,0,5160,0,193,72,2454,0,-1,0,0,-1,400,56.0,24174.0,81.61,86.98,-1,
 434485,-500,-162,-8324,-31,1,-102,322,-2,-2,5168,-3,191,113,2454,0,-1,0,0,-1,400,56.0,24191.0,81.61,86.72,-1,
 434515,-444,-244,-8282,-24,-25,-86,322,0,2,5168,2,181,45,2455,0,-1,0,0,-1,400,56.0,24207.0,81.61,86.47,-1,
 434525,-462,-136,-8320,-24,-27,-84,322,-1,0,5168,-2,185,46,2455,0,-1,0,0,-1,400,56.0,24224.0,81.61,86.35,-1,
 434535,-460,48,-8294,-23,-38,-84,323,4,1,5168,1,185,42,2455,0,-1,0,0,-1,400,56.0,24240.0,81.61,86.35,-1,
