State time, Accel X, Accel Y, Accel Z, Gyro X, Gyro Y, Gyro Z, Encoder angle, Encoder velocity, Encoder acceleration, Motor voltage, Motor current, Battery voltage, Battery current, Ankle angle, Ankle vel, Percent Gait, Heelstrike Armed, Segmentation Trigger, Expected Duration, Current Command, Torque Command, Soft Sensor Time, Hip Soft Sensor, Knee Soft Sensor, MHE Percent Gait, 
 411403,-422,70,8180,-12,10,22,9821,1,1,0,6,178,4,4878,0,-1,0,0,-1,nan,nan,-1,-1,-1,-1,
 412433,-428,70,8178,-15,13,27,9822,1,-2,5176,0,179,81,4878,0,-1,0,0,-1,400,56.0,81.61,-1,-1,-1,
 412443,-434,88,8192,-17,14,25,9820,-3,-2,5168,5,179,58,4878,0,-1,0,0,-1,400,56.0,183840.0,81.61,82.06,-1,
 412453,-402,56,8156,-20,15,30,9821,-1,-6,5168,4,179,33,4879,0,-1,0,0,-1,400,56.0,65.0,81.61,81.95,-1,
 412463,-408,70,8184,-18,18,29,9821,3,-2,5184,2,178,22,4878,0,-1,0,0,-1,400,56.0,362.0,81.73,82.06,-1,
 412473,-436,50,8164,-18,19,29,9822,-4,0,5160,5,178,51,4879,0,-1,0,0,-1,400,56.0,1835.0,80.73,79.86,-1,
 412483,-402,56,8162,-12,12,29,9821,-4,1,5160,4,176,45,4878,0,-1,0,0,-1,400,56.0,2099.0,80.62,80.29,-1,
 412493,-382,72,8180,-19,16,29,9821,0,-2,5160,0,176,55,4878,0,-1,0,0,-1,400,56.0,2481.0,80.51,80.29,-1,
 412503,-426,74,8174,-22,13,28,9822,4,1,5168,3,180,66,4878,0,-1,0,0,-1,400,56.0,2978.0,81.39,80.73,-1,
 412513,-434,68,8164,-16,15,25,9822,0,1,5176,0,181,73,4879,0,-1,0,0,-1,400,56.0,3276.0,81.5,80.51,-1,
 412523,-400,64,8158,-16,19,27,9822,3,1,5168,1,182,77,4878,0,-1,0,0,-1,400,56.0,3409.0,81.39,80.62,-1,
 412533,-404,68,8178,-13,17,29,9822,0,-1,5168,0,179,58,4878,0,-1,0,0,-1,400,56.0,3624.0,81.39,81.17,-1,
 412543,-430,60,8162,-17,18,31,9821,1,-2,5176,1,179,55,4878,0,-1,0,0,-1,400,56.0,3889.0,81.5,81.06,-1,
 412553,-392,70,8156,-11,10,26,9823,4,-2,5160,6,178,38,4879,0,-1,0,0,-1,400,56.0,4187.0,81.73,81.06,-1,
 412563,-390,44,8154,-13,17,27,9822,-4,2,5176,5,178,23,4878,0,-1,0,0,-1,400,56.0,4287.0,81.61,81.17,-1,
 412573,-436,44,8162,-15,15,27,9822,-3,-2,5160,4,178,20,4878,0,-1,0,0,-1,400,56.0,4436.0,81.61,81.06,-1,
 412583,-392,60,8170,-18,11,25,9820,-2,2,5160,1,181,45,4878,0,-1,0,0,-1,400,56.0,4503.0,81.61,81.17,-1,
 412603,-398,64,8160,-17,16,24,9822,0,-4,5168,3,180,50,4878,0,-1,0,0,-1,400,56.0,4519.0,81.61,81.17,-1,
 412623,-404,62,8176,-14,14,28,9822,-1,1,5168,4,180,45,4878,0,-1,0,0,-1,400,56.0,4535.0,81.61,81.06,-1,
 412643,-404,58,8172,-16,12,28,9821,-4,-2,5168,4,180,67,4878,0,-1,0,0,-1,400,56.0,4552.0,81.61,81.06,-1,
 412653,-426,82,8156,-18,19,30,9822,-1,2,5168,4,182,54,4878,0,-1,0,0,-1,400,56.0,4568.0,81.61,81.06,-1,
 412673,-444,66,8170,-19,18,27,9821,8,1,5168,5,185,74,4878,0,-1,0,0,-1,400,56.0,4585.0,81.61,81.06,-1,
 412683,-436,68,8150,-20,13,28,9822,2,4,5168,4,182,85,4878,0,-1,0,0,-1,400,56.0,4602.0,81.61,81.06,-1,
 412703,-438,68,8164,-16,13,25,9821,-4,-1,5168,3,179,49,4878,0,-1,0,0,-1,400,56.0,4618.0,81.61,81.06,-1,
 412723,-448,66,8174,-17,13,31,9821,-6,-2,5168,6,180,30,4878,0,-1,0,0,-1,400,56.0,4635.0,81.61,81.06,-1,
 412733,-416,88,8192,-14,12,28,9821,-3,-3,5168,4,179,9,4878,0,-1,0,0,-1,400,56.0,4651.0,81.61,81.06,-1,
 412743,-426,44,8158,-14,12,25,9821,3,0,5168,6,178,26,4878,0,-1,0,0,-1,400,56.0,4667.0,81.61,81.06,-1,
 412753,-410,46,8144,-20,18,20,9821,2,-4,5168,3,176,35,4878,0,-1,0,0,-1,400,56.0,4685.0,81.61,81.06,-1,
 412763,-396,68,8164,-18,13,27,9822,-1,5,5176,6,176,57,4878,0,-1,0,0,-1,400,56.0,4701.0,81.61,81.06,-1,
 412783,-436,64,8174,-19,12,27,9823,0,2,5168,2,178,38,4878,0,-1,0,0,-1,400,56.0,4718.0,81.61,81.06,-1,
 412793,-400,56,8164,-18,10,25,9822,4,-3,5168,2,181,34,4878,0,-1,0,0,-1,400,56.0,4734.0,81.61,81.06,-1,
 412813,-430,62,8182,-13,15,26,9822,-1,-3,5168,0,184,46,4879,0,-1,0,0,-1,400,56.0,4750.0,81.61,81.06,-1,
 412833,-390,42,8184,-17,13,27,9822,0,-5,5168,2,176,2,4878,0,-1,0,0,-1,400,56.0,4768.0,81.61,81.06,-1,
 412853,-430,72,8156,-13,12,27,9822,5,3,5168,3,170,-16,4878,0,-1,0,0,-1,400,56.0,4784.0,81.61,81.06,-1,
 412863,-424,54,8170,-19,17,25,9821,6,3,5168,3,177,8,4878,0,-1,0,0,-1,400,56.0,4801.0,81.61,81.06,-1,
 412893,-422,44,8166,-14,17,28,9821,-5,-1,5160,5,173,14,4878,0,-1,0,0,-1,400,56.0,4817.0,81.61,81.06,-1,
 412913,-404,54,8162,-15,14,31,9822,-1,2,5168,2,179,-26,4879,0,-1,0,0,-1,400,56.0,4833.0,81.61,81.06,-1,
 412943,-430,60,8186,-20,16,28,9822,-3,2,5168,2,169,-82,4878,0,-1,0,0,-1,400,56.0,4850.0,81.61,81.17,-1,
 412953,-430,62,8154,-13,17,25,9822,-2,1,5168,7,173,-70,4878,0,-1,0,0,-1,400,56.0,4867.0,81.73,81.17,-1,
 412963,-436,98,8136,-18,21,27,9822,1,2,5176,3,174,-55,4879,0,-1,0,0,-1,400,56.0,4884.0,81.73,81.17,-1,
 412973,-436,54,8168,-17,13,26,9821,-5,-1,5168,2,167,-58,4879,0,-1,0,0,-1,400,56.0,4900.0,81.73,81.17,-1,
 412993,-416,56,8146,-13,13,27,9822,0,0,5168,1,170,-76,4878,0,-1,0,0,-1,400,56.0,4916.0,81.73,81.17,-1,
 413013,-414,78,8156,-19,13,26,9821,0,2,5168,2,170,-57,4878,0,-1,0,0,-1,400,56.0,4933.0,81.73,81.17,-1,
 413043,-428,42,8152,-17,12,26,9821,-3,-2,5168,6,169,-75,4879,0,-1,0,0,-1,400,56.0,4950.0,81.73,81.17,-1,
 413073,-414,94,8172,-16,15,24,9822,0,2,5168,4,172,-87,4879,0,-1,0,0,-1,400,56.0,4983.0,81.73,81.28,-1,
 413083,-426,78,8170,-16,15,27,9820,-5,0,5160,1,171,-62,4879,0,-1,0,0,-1,400,56.0,4999.0,81.73,81.28,-1,
 413103,-414,70,8188,-19,14,27,9822,5,2,5168,6,171,-15,4878,0,-1,0,0,-1,400,56.0,5016.0,81.73,81.28,-1,
 413123,-446,52,8168,-22,14,24,9822,-4,-3,5168,0,174,-26,4880,0,-1,0,0,-1,400,56.0,5032.0,81.61,81.28,-1,
 413133,-416,54,8134,-19,16,24,9821,-4,-4,5176,4,176,-20,4878,0,-1,0,0,-1,400,56.0,5049.0,81.73,81.28,-1,
 413143,-476,64,8142,-13,13,23,9822,2,-2,5176,0,176,-16,4878,0,-1,0,0,-1,400,56.0,5066.0,81.61,81.28,-1,
 413163,-426,34,8128,-15,18,28,9822,-2,2,5176,9,174,-32,4878,0,-1,0,0,-1,400,56.0,5082.0,81.61,81.28,-1,
 413173,-410,44,8176,-13,14,29,9822,6,-1,5168,5,177,-74,4878,0,-1,0,0,-1,400,56.0,5099.0,81.61,81.28,-1,
 413193,-426,40,8172,-16,18,24,9822,-2,-1,5168,2,171,-75,4879,0,-1,0,0,-1,400,56.0,5115.0,81.61,81.28,-1,
 413223,-382,52,8154,-14,13,24,9822,2,2,5168,2,174,-49,4878,0,-1,0,0,-1,400,56.0,5132.0,81.61,81.28,-1,
 413253,-416,62,8166,-16,16,26,9822,5,-2,5168,3,171,-62,4878,0,-1,0,0,-1,400,56.0,5165.0,81.61,81.28,-1,
 413273,-398,54,8170,-17,14,23,9822,-1,0,5160,4,170,-46,4879,0,-1,0,0,-1,400,56.0,5182.0,81.61,81.28,-1,
 413303,-408,74,8174,-15,17,26,9821,-6,-4,5168,5,176,-62,4877,0,-1,0,0,-1,400,56.0,5215.0,81.61,81.17,-1,
 413323,-464,80,8170,-17,12,26,9822,0,-3,5168,0,174,-7,4878,0,-1,0,0,-1,400,56.0,5232.0,81.5,81.17,-1,
 413333,-396,82,8154,-13,21,26,9822,-2,-3,5168,3,172,-22,4879,0,-1,0,0,-1,400,56.0,5248.0,81.61,81.17,-1,
 413343,-446,38,8174,-15,15,24,9821,4,2,5176,2,171,-21,4879,0,-1,0,0,-1,400,56.0,5264.0,81.61,81.17,-1,
 413353,-422,68,8172,-20,13,24,9821,-7,-2,5160,3,175,-11,4878,0,-1,0,0,-1,400,56.0,5281.0,81.61,81.17,-1,
 413373,-440,56,8158,-18,13,26,9821,-1,0,5160,1,174,-29,4878,0,-1,0,0,-1,400,56.0,5297.0,81.61,81.17,-1,
 413393,-418,54,8178,-17,12,26,9821,-7,-3,5176,3,176,-19,4878,0,-1,0,0,-1,400,56.0,5315.0,81.61,81.17,-1,
 413403,-418,56,8168,-16,14,29,9819,-10,3,5168,1,174,-9,4878,0,-1,0,0,-1,400,56.0,5347.0,81.61,81.17,-1,
 413413,-416,38,8162,-11,14,27,9821,-2,0,5168,3,171,14,4879,0,-1,0,0,-1,400,56.0,5380.0,81.61,81.17,-1,
 413433,-418,56,8150,-18,17,27,9821,-3,5,5168,0,178,2,4878,0,-1,0,0,-1,400,56.0,5398.0,81.61,81.06,-1,
 413493,-384,70,8154,-19,15,26,9821,3,3,5176,0,171,-20,4878,0,-1,0,0,-1,400,56.0,5414.0,81.61,81.17,-1,
 413513,-400,58,8172,-12,14,25,9822,4,-1,5168,1,185,4,4878,0,-1,0,0,-1,400,56.0,5430.0,81.61,81.17,-1,
 413533,-396,72,8168,-16,19,27,9822,0,0,5176,5,178,-7,4878,0,-1,0,0,-1,400,56.0,5447.0,81.61,81.17,-1,
 413543,-420,82,8168,-14,14,23,9821,-5,-5,5168,2,170,-59,4878,0,-1,0,0,-1,400,56.0,5463.0,81.61,81.17,-1,
 413553,-430,46,8174,-13,12,27,9821,1,1,5168,1,170,-66,4878,0,-1,0,0,-1,400,56.0,5481.0,81.61,81.17,-1,
 413583,-452,56,8160,-20,19,27,9821,2,6,5168,-2,176,1,4879,0,-1,0,0,-1,400,56.0,5513.0,81.73,81.17,-1,
 413603,-410,56,8172,-18,15,29,9822,3,0,5168,4,173,-24,4879,0,-1,0,0,-1,400,56.0,5530.0,81.73,81.28,-1,
 413613,-392,18,8170,-24,18,29,9821,-1,4,5176,3,173,-16,4878,0,-1,0,0,-1,400,56.0,5546.0,81.73,81.28,-1,
 413643,-406,70,8168,-19,15,24,9823,-1,-4,5168,0,170,-36,4877,0,-1,0,0,-1,400,56.0,5563.0,81.73,81.28,-1,
 413663,-414,54,8160,-15,18,26,9821,0,0,5176,1,174,-34,4878,0,-1,0,0,-1,400,56.0,5580.0,81.73,81.28,-1,
 413683,-428,66,8172,-21,13,28,9821,-1,-3,5160,0,170,-53,4878,0,-1,0,0,-1,400,56.0,5596.0,81.73,81.28,-1,
 413693,-394,48,8146,-15,12,27,9821,-5,-1,5176,0,173,-35,4878,0,-1,0,0,-1,400,56.0,5613.0,81.73,81.28,-1,
 413703,-428,66,8154,-14,15,29,9821,2,0,5168,6,174,2,4878,0,-1,0,0,-1,400,56.0,5629.0,81.73,81.28,-1,
 413733,-414,30,8164,-19,10,27,9821,-3,-3,5176,4,173,-18,4879,0,-1,0,0,-1,400,56.0,5645.0,81.73,81.28,-1,
 413753,-414,42,8172,-17,14,27,9821,0,1,5168,2,171,-18,4878,0,-1,0,0,-1,400,56.0,5663.0,81.73,81.28,-1,
 413763,-406,72,8168,-17,12,25,9821,2,-2,5168,3,168,-40,4879,0,-1,0,0,-1,400,56.0,5679.0,81.73,81.17,-1,
 413783,-428,56,8190,-19,17,25,9821,-4,3,5160,5,172,-15,4879,0,-1,0,0,-1,400,56.0,5696.0,81.73,81.28,-1,
 413793,-392,76,8164,-11,14,27,9822,0,5,5176,0,170,-5,4878,0,-1,0,0,-1,400,56.0,5712.0,81.73,81.17,-1,
 413823,-438,66,8158,-17,11,27,9821,0,-2,5176,-1,179,-14,4879,0,-1,0,0,-1,400,56.0,5728.0,81.73,81.06,-1,
 413843,-462,42,8160,-12,22,27,9821,-7,-1,5168,3,178,4,4878,0,-1,0,0,-1,400,56.0,5762.0,81.73,81.17,-1,
 413853,-414,62,8174,-14,12,29,9822,-3,-1,5176,4,171,-36,4878,0,-1,0,0,-1,400,56.0,5779.0,81.73,81.17,-1,
 413863,-440,46,8166,-14,16,25,9820,-2,-2,5168,2,174,-45,4879,0,-1,0,0,-1,400,56.0,5795.0,81.73,81.17,-1,
 413873,-406,54,8154,-16,21,26,9821,-1,1,5168,1,176,-49,4878,0,-1,0,0,-1,400,56.0,5811.0,81.73,81.06,-1,
 413883,-400,60,8158,-10,12,30,9821,7,-3,5168,6,180,-30,4879,0,-1,0,0,-1,400,56.0,5811.0,81.73,81.06,-1,
 413903,-428,74,8180,-17,17,25,9821,-3,-1,5168,4,178,-36,4878,0,-1,0,0,-1,400,56.0,5828.0,81.73,81.17,-1,
 413913,-410,60,8154,-17,19,27,9822,-1,2,5168,0,180,1,4878,0,-1,0,0,-1,400,56.0,5845.0,81.73,81.06,-1,
 413933,-410,50,8172,-18,13,26,9821,-2,-3,5168,1,178,48,4878,0,-1,0,0,-1,400,56.0,5861.0,81.73,81.17,-1,
 413963,-430,68,8164,-18,16,26,9820,-8,0,5168,0,172,-22,4878,0,-1,0,0,-1,400,56.0,5878.0,81.61,81.06,-1,
 413973,-430,46,8174,-15,15,24,9822,1,4,5176,5,171,-46,4879,0,-1,0,0,-1,400,56.0,5894.0,81.73,81.17,-1,
 413983,-410,54,8154,-20,13,28,9822,3,1,5168,1,169,-51,4878,0,-1,0,0,-1,400,56.0,5911.0,81.61,81.06,-1,
 414003,-410,68,8164,-12,10,29,9821,0,-4,5168,6,175,-15,4879,0,-1,0,0,-1,400,56.0,5928.0,81.61,81.17,-1,
 414033,-414,62,8164,-15,18,22,9822,4,-1,5168,5,177,2,4878,0,-1,0,0,-1,400,56.0,5944.0,81.61,81.17,-1,
 414043,-426,74,8144,-19,16,26,9821,0,-3,5160,3,175,-3,4879,0,-1,0,0,-1,400,56.0,5961.0,81.73,81.06,-1,
 414053,-440,62,8152,-19,20,28,9821,1,0,5176,5,178,29,4878,0,-1,0,0,-1,400,56.0,6010.0,81.61,81.17,-1,
 414073,-418,66,8152,-16,13,25,9822,0,2,5168,2,173,16,4878,0,-1,0,0,-1,400,56.0,6027.0,81.61,81.17,-1,
 414103,-428,68,8160,-16,17,31,9821,-1,-1,5176,3,180,20,4878,0,-1,0,0,-1,400,56.0,6044.0,81.61,81.06,-1,
 414123,-444,58,8164,-16,12,26,9822,4,2,5168,3,173,-30,4878,0,-1,0,0,-1,400,56.0,6060.0,81.73,81.17,-1,
 414163,-436,70,8160,-17,13,25,9822,0,-1,5160,1,170,-50,4878,0,-1,0,0,-1,400,56.0,6077.0,81.73,81.17,-1,
 414183,-434,44,8160,-21,14,21,9821,-4,1,5160,4,181,-17,4878,0,-1,0,0,-1,400,56.0,6093.0,81.73,81.17,-1,
 414193,-426,50,8162,-18,16,29,9819,-8,0,5168,4,179,-7,4879,0,-1,0,0,-1,400,56.0,6110.0,81.73,81.06,-1,
 414213,-420,70,8164,-14,11,27,9821,-10,0,5176,2,176,18,4878,0,-1,0,0,-1,400,56.0,6143.0,81.61,81.06,-1,
 414233,-436,46,8170,-17,18,23,9822,0,1,5176,4,177,50,4878,0,-1,0,0,-1,400,56.0,6159.0,81.61,81.06,-1,
 414263,-426,60,8180,-15,15,32,9821,-6,-1,5176,3,179,23,4878,0,-1,0,0,-1,400,56.0,6176.0,81.61,81.06,-1,
 414283,-444,44,8160,-17,14,22,9821,-4,1,5160,4,174,22,4877,0,-1,0,0,-1,400,56.0,6192.0,81.61,81.06,-1,
 414313,-440,62,8144,-18,15,32,9821,3,2,5176,3,179,26,4879,0,-1,0,0,-1,400,56.0,6226.0,81.61,81.06,-1,
 414333,-450,68,8160,-16,12,26,9821,-1,1,5168,2,176,5,4878,0,-1,0,0,-1,400,56.0,6242.0,81.73,81.06,-1,
 414343,-408,56,8150,-11,12,26,9821,-2,-2,5168,3,176,3,4879,0,-1,0,0,-1,400,56.0,6259.0,81.61,81.06,-1,
 414353,-408,50,8162,-13,15,27,9822,0,-3,5176,4,182,17,4878,0,-1,0,0,-1,400,56.0,6275.0,81.61,81.17,-1,
 414363,-416,72,8170,-16,11,26,9822,3,0,5168,4,179,-8,4878,0,-1,0,0,-1,400,56.0,6309.0,81.61,81.17,-1,
 414403,-424,46,8162,-22,17,30,9821,-2,1,5176,4,178,15,4878,0,-1,0,0,-1,400,56.0,6325.0,81.61,81.17,-1,
 414433,-438,68,8184,-16,15,27,9822,5,4,5168,3,176,22,4878,0,-1,0,0,-1,400,56.0,6342.0,81.61,81.17,-1,
 414453,-404,48,8150,-16,17,24,9822,-1,-2,5168,3,181,42,4879,0,-1,0,0,-1,400,56.0,6358.0,81.5,81.17,-1,
 414473,-442,36,8172,-21,15,26,9822,-1,-2,5160,4,181,27,4878,0,-1,0,0,-1,400,56.0,6392.0,81.5,81.17,-1,
 414493,-410,66,8170,-13,16,23,9820,-6,-1,5160,3,179,36,4878,0,-1,0,0,-1,400,56.0,6408.0,81.5,81.17,-1,
 414513,-458,40,8166,-17,19,26,9822,0,-4,5176,7,181,43,4878,0,-1,0,0,-1,400,56.0,6425.0,81.61,81.17,-1,
 414533,-402,64,8162,-20,9,30,9822,1,3,5176,2,177,-17,4878,0,-1,0,0,-1,400,56.0,6441.0,81.61,81.17,-1,
 414543,-396,62,8160,-15,12,24,9821,-8,0,5160,6,175,-48,4879,0,-1,0,0,-1,400,56.0,6457.0,81.61,81.17,-1,
 414553,-436,54,8180,-17,17,28,9821,-3,3,5168,3,175,-41,4878,0,-1,0,0,-1,400,56.0,6475.0,81.61,81.06,-1,
 414573,-404,60,8154,-17,16,23,9822,0,0,5168,3,182,52,4878,0,-1,0,0,-1,400,56.0,6491.0,81.61,81.17,-1,
 414583,-410,50,8192,-18,12,25,9821,2,0,5168,0,183,58,4878,0,-1,0,0,-1,400,56.0,6508.0,81.61,81.17,-1,
 414593,-434,62,8194,-16,11,28,9822,-2,0,5168,2,185,61,4879,0,-1,0,0,-1,400,56.0,6524.0,81.61,81.28,-1,
 414623,-420,50,8160,-14,18,26,9822,3,2,5160,1,180,51,4878,0,-1,0,0,-1,400,56.0,6540.0,81.61,81.28,-1,
 414643,-406,60,8164,-19,17,25,9821,5,4,5168,0,181,70,4878,0,-1,0,0,-1,400,56.0,6558.0,81.5,81.17,-1,
 414663,-404,48,8186,-16,17,22,9823,8,4,5176,0,182,26,4878,0,-1,0,0,-1,400,56.0,6574.0,81.5,81.17,-1,
 414683,-408,46,8150,-12,20,24,9821,5,-1,5176,3,178,30,4878,0,-1,0,0,-1,400,56.0,6591.0,81.5,81.17,-1,
 414703,-406,62,8170,-17,18,26,9822,5,1,5168,4,179,42,4878,0,-1,0,0,-1,400,56.0,6640.0,81.39,81.17,-1,
 414723,-428,66,8162,-13,15,28,9821,0,-1,5160,0,178,52,4878,0,-1,0,0,-1,400,56.0,6657.0,81.39,81.06,-1,
 414753,-426,42,8158,-9,18,27,9822,2,-1,5168,4,179,52,4878,0,-1,0,0,-1,400,56.0,6673.0,81.39,81.06,-1,
 414773,-430,40,8162,-15,17,29,9822,0,-2,5160,5,179,90,4879,0,-1,0,0,-1,400,56.0,6690.0,81.39,81.06,-1,
 414793,-410,80,8122,-14,16,27,9821,-5,1,5168,6,178,72,4878,0,-1,0,0,-1,400,56.0,6706.0,81.39,81.06,-1,
 414803,-424,34,8166,-23,14,29,9821,-1,-1,5168,7,179,66,4878,0,-1,0,0,-1,400,56.0,6723.0,81.39,81.06,-1,
 414833,-432,68,8168,-16,15,30,9822,5,2,5176,3,181,36,4878,0,-1,0,0,-1,400,56.0,6740.0,81.39,81.06,-1,
 414863,-462,66,8156,-15,17,26,9821,0,1,5184,1,182,66,4879,0,-1,0,0,-1,400,56.0,6773.0,81.39,81.06,-1,
 414873,-414,58,8154,-15,15,27,9821,1,4,5160,0,181,29,4879,0,-1,0,0,-1,400,56.0,6789.0,81.39,81.17,-1,
 414883,-418,32,8146,-15,17,22,9822,7,-1,5176,0,179,1,4878,0,-1,0,0,-1,400,56.0,6806.0,81.39,81.17,-1,
 414893,-402,60,8146,-17,13,26,9823,3,5,5168,2,178,-14,4878,0,-1,0,0,-1,400,56.0,6822.0,81.39,81.17,-1,
 414903,-436,76,8184,-15,12,26,9821,-12,-3,5160,1,175,-12,4878,0,-1,0,0,-1,400,56.0,6839.0,81.39,81.17,-1,
 414933,-450,68,8166,-17,18,26,9821,1,2,5176,3,180,62,4878,0,-1,0,0,-1,400,56.0,6856.0,81.39,81.17,-1,
 414953,-382,68,8162,-17,19,25,9821,-1,-2,5168,6,178,56,4878,0,-1,0,0,-1,400,56.0,6872.0,81.5,81.17,-1,
 414973,-420,84,8174,-16,15,31,9821,0,2,5168,2,182,50,4880,0,-1,0,0,-1,400,56.0,6889.0,81.5,81.17,-1,
 414993,-410,74,8176,-15,14,25,9822,2,2,5168,4,180,49,4878,0,-1,0,0,-1,400,56.0,6905.0,81.5,81.17,-1,
 415003,-442,70,8162,-14,13,24,9822,0,1,5168,0,182,15,4878,0,-1,0,0,-1,400,56.0,6939.0,81.5,81.17,-1,
 415033,-390,66,8162,-12,19,26,9821,3,4,5168,0,178,32,4878,0,-1,0,0,-1,400,56.0,6955.0,81.5,81.17,-1,
 415043,-428,72,8160,-20,15,23,9822,-4,-2,5168,1,179,51,4878,0,-1,0,0,-1,400,56.0,6971.0,81.5,81.17,-1,
 415083,-402,66,8150,-17,12,24,9822,3,-2,5160,1,173,32,4878,0,-1,0,0,-1,400,56.0,6988.0,81.39,81.17,-1,
 415113,-410,68,8184,-17,15,26,9822,1,1,5184,3,186,60,4878,0,-1,0,0,-1,400,56.0,7022.0,81.39,81.17,-1,
 415123,-436,60,8184,-13,16,25,9821,-3,-4,5168,0,189,79,4878,0,-1,0,0,-1,400,56.0,7038.0,81.39,81.17,-1,
 415133,-406,64,8160,-17,18,27,9821,0,-4,5168,2,185,55,4878,0,-1,0,0,-1,400,56.0,7071.0,81.39,81.17,-1,
 415153,-416,44,8160,-17,7,24,9822,6,-3,5160,4,183,49,4878,0,-1,0,0,-1,400,56.0,7087.0,81.39,81.17,-1,
 415183,-416,60,8162,-15,20,25,9821,3,2,5168,3,182,59,4879,0,-1,0,0,-1,400,56.0,7104.0,81.39,81.06,-1,
 415193,-394,60,8162,-14,15,25,9821,0,3,5168,-3,180,55,4878,0,-1,0,0,-1,400,56.0,7121.0,81.39,81.17,-1,
 415203,-414,64,8158,-11,15,26,9822,0,-2,5168,9,176,41,4878,0,-1,0,0,-1,400,56.0,7137.0,81.39,81.17,-1,
 415223,-404,72,8162,-13,15,25,9822,1,1,5168,4,178,39,4878,0,-1,0,0,-1,400,56.0,7154.0,81.28,81.17,-1,
 415253,-410,56,8172,-20,15,31,9822,1,-1,5168,-1,178,34,4879,0,-1,0,0,-1,400,56.0,7170.0,81.28,81.06,-1,
 415273,-446,58,8166,-18,15,31,9822,1,-3,5160,5,180,5,4878,0,-1,0,0,-1,400,56.0,7187.0,81.28,81.17,-1,
 415293,-390,56,8180,-16,17,24,9821,-2,2,5168,3,178,63,4878,0,-1,0,0,-1,400,56.0,7204.0,81.39,81.17,-1,
 415303,-404,64,8170,-16,14,29,9820,-8,1,5168,6,182,58,4879,0,-1,0,0,-1,400,56.0,7220.0,81.28,81.06,-1,
 415323,-420,58,8158,-19,20,29,9822,0,3,5168,2,182,57,4879,0,-1,0,0,-1,400,56.0,7237.0,81.28,81.06,-1,
 415333,-424,38,8156,-15,15,25,9823,0,1,5160,5,181,69,4878,0,-1,0,0,-1,400,56.0,7269.0,81.28,81.06,-1,
 415353,-432,50,8162,-12,14,29,9821,-1,1,5168,4,178,47,4878,0,-1,0,0,-1,400,56.0,7286.0,81.28,81.06,-1,
 415393,-444,48,8186,-14,12,24,9823,4,0,5168,0,179,58,4878,0,-1,0,0,-1,400,56.0,7303.0,81.28,81.06,-1,
 415413,-430,82,8162,-16,16,24,9821,-7,0,5176,0,182,60,4878,0,-1,0,0,-1,400,56.0,7320.0,81.28,81.06,-1,
 415423,-422,64,8170,-16,17,25,9822,7,-2,5168,0,178,41,4878,0,-1,0,0,-1,400,56.0,7336.0,81.28,81.06,-1,
 415453,-410,66,8150,-17,11,29,9821,-1,-3,5168,4,178,44,4878,0,-1,0,0,-1,400,56.0,7369.0,81.28,81.17,-1,
 415473,-420,60,8160,-17,15,25,9821,-3,1,5160,2,182,54,4878,0,-1,0,0,-1,400,56.0,7386.0,81.28,81.06,-1,
 415493,-400,68,8160,-16,15,29,9822,-1,-2,5168,-1,179,55,4878,0,-1,0,0,-1,400,56.0,7403.0,81.28,81.17,-1,
 415503,-406,74,8160,-17,20,24,9821,0,3,5168,2,180,63,4880,0,-1,0,0,-1,400,56.0,7419.0,81.28,81.06,-1,
 415523,-432,78,8184,-17,14,25,9821,-8,2,5168,1,182,43,4879,0,-1,0,0,-1,400,56.0,7435.0,81.28,81.17,-1,
 415543,-422,46,8170,-15,18,25,9822,-1,-1,5168,5,175,1,4878,0,-1,0,0,-1,400,56.0,7452.0,81.28,81.17,-1,
 415553,-398,62,8158,-13,12,27,9821,-5,0,5168,3,175,-12,4879,0,-1,0,0,-1,400,56.0,7468.0,81.28,81.06,-1,
 415563,-438,60,8176,-15,13,27,9821,-5,3,5168,2,173,-15,4878,0,-1,0,0,-1,400,56.0,7468.0,81.28,81.06,-1,
 415573,-418,60,8172,-20,13,25,9821,0,-2,5168,5,170,-7,4879,0,-1,0,0,-1,400,56.0,7486.0,81.28,81.17,-1,
 415593,-428,32,8172,-16,11,29,9822,0,4,5168,3,173,-29,4879,0,-1,0,0,-1,400,56.0,7502.0,81.39,81.17,-1,
 415603,-442,68,8158,-15,16,30,9821,-7,8,5168,5,173,-37,4879,0,-1,0,0,-1,400,56.0,7518.0,81.28,81.06,-1,
 415613,-440,40,8176,-15,9,25,9822,1,-5,5160,6,170,-48,4879,0,-1,0,0,-1,400,56.0,7535.0,81.28,81.17,-1,
 415623,-404,42,8178,-17,15,24,9821,0,3,5160,3,173,-42,4879,0,-1,0,0,-1,400,56.0,7551.0,81.28,81.17,-1,
 415653,-450,80,8178,-17,9,28,9821,-1,-1,5168,2,179,-29,4879,0,-1,0,0,-1,400,56.0,7568.0,81.28,81.17,-1,
 415673,-400,84,8144,-16,17,27,9821,2,-4,5168,0,178,-22,4878,0,-1,0,0,-1,400,56.0,7585.0,81.17,81.17,-1,
 415683,-398,60,8170,-14,15,27,9821,-2,-1,5168,1,178,-36,4878,0,-1,0,0,-1,400,56.0,7601.0,81.17,81.17,-1,
 415703,-374,62,8184,-18,13,30,9821,0,-2,5168,5,170,-21,4879,0,-1,0,0,-1,400,56.0,7618.0,81.17,81.17,-1,
 415723,-416,66,8152,-17,17,26,9823,-4,1,5160,4,176,-1,4877,0,-1,0,0,-1,400,56.0,7634.0,81.28,81.17,-1,
 415743,-418,48,8154,-18,14,26,9822,1,4,5168,2,177,-34,4878,0,-1,0,0,-1,400,56.0,7651.0,81.28,81.06,-1,
 415753,-398,46,8138,-14,14,24,9822,0,3,5168,7,170,-75,4879,0,-1,0,0,-1,400,56.0,7668.0,81.17,81.06,-1,
 415763,-450,84,8166,-12,12,31,9822,-2,2,5176,4,168,-84,4878,0,-1,0,0,-1,400,56.0,7684.0,81.17,81.06,-1,
 415793,-384,88,8148,-18,12,25,9822,1,-1,5168,3,169,-40,4879,0,-1,0,0,-1,400,56.0,7701.0,81.17,81.06,-1,
 415803,-444,62,8158,-15,19,23,9821,-3,-3,5168,4,171,-69,4879,0,-1,0,0,-1,400,56.0,7717.0,81.17,80.95,-1,
 415823,-414,50,8174,-12,16,27,9821,1,-2,5168,2,172,-69,4879,0,-1,0,0,-1,400,56.0,7734.0,81.17,80.95,-1,
 415843,-424,80,8164,-17,15,29,9821,3,-2,5176,4,170,-39,4879,0,-1,0,0,-1,400,56.0,7751.0,81.17,80.95,-1,
 415853,-414,54,8162,-14,14,27,9821,-4,3,5168,8,174,-48,4878,0,-1,0,0,-1,400,56.0,7767.0,81.17,81.06,-1,
 415873,-410,52,8148,-20,19,24,9822,1,3,5160,5,170,-61,4879,0,-1,0,0,-1,400,56.0,7784.0,81.17,81.06,-1,
 415893,-452,52,8164,-17,16,26,9821,0,-1,5168,5,172,-62,4879,0,-1,0,0,-1,400,56.0,7800.0,81.06,80.95,-1,
 415903,-428,52,8148,-11,13,28,9822,1,-3,5168,3,174,-60,4879,0,-1,0,0,-1,400,56.0,7816.0,81.06,80.95,-1,
 415923,-454,70,8162,-17,13,29,9822,5,1,5168,0,169,-61,4879,0,-1,0,0,-1,400,56.0,7834.0,81.17,81.06,-1,
 415933,-432,50,8150,-16,13,25,9821,-2,-3,5168,5,170,-64,4879,0,-1,0,0,-1,400,56.0,7850.0,81.17,80.95,-1,
 415943,-384,60,8150,-15,13,25,9820,0,-4,5176,4,170,-43,4879,0,-1,0,0,-1,400,56.0,7866.0,81.39,81.06,-1,
 415953,-426,56,8154,-21,15,24,9821,-3,1,5168,4,176,-15,4878,0,-1,0,0,-1,400,56.0,7883.0,81.5,81.06,-1,
 415963,-428,60,8170,-14,22,27,9823,10,-1,5176,0,180,-19,4879,0,-1,0,0,-1,400,56.0,7933.0,81.39,81.5,-1,
 415973,-410,72,8188,-12,13,29,9822,1,-1,5168,0,178,-60,4879,0,-1,0,0,-1,400,56.0,7949.0,81.39,81.5,-1,
 416043,-382,38,8108,-19,25,27,9822,5,1,5176,3,179,-35,4879,0,-1,0,0,-1,400,56.0,7966.0,81.39,81.39,-1,
 416073,-402,38,8108,-15,22,29,9822,-1,1,5160,6,170,-72,4879,0,-1,0,0,-1,400,56.0,7982.0,81.28,81.39,-1,
 416083,-462,60,8148,-16,14,28,9822,7,4,5168,3,172,-34,4879,0,-1,0,0,-1,400,56.0,7999.0,81.39,81.5,-1,
 416093,-424,48,8110,-15,10,27,9822,1,-1,5168,3,177,-25,4878,0,-1,0,0,-1,400,56.0,8015.0,81.39,81.39,-1,
 416113,-438,64,8132,-15,16,27,9822,0,1,5176,3,179,-62,4879,0,-1,0,0,-1,400,56.0,8032.0,81.39,81.5,-1,
 416143,-442,58,8172,-15,20,26,9822,-1,2,5176,0,171,-17,4879,0,-1,0,0,-1,400,56.0,8049.0,81.39,81.5,-1,
 416153,-428,38,8170,-18,16,30,9821,1,-3,5168,1,172,-39,4879,0,-1,0,0,-1,400,56.0,8065.0,81.39,81.5,-1,
 416173,-398,64,8158,-21,14,31,9821,1,4,5168,1,173,-17,4879,0,-1,0,0,-1,400,56.0,8081.0,81.28,81.5,-1,
 416193,-404,70,8156,-18,11,30,9822,2,1,5168,2,170,-36,4879,0,-1,0,0,-1,400,56.0,8098.0,81.28,81.5,-1,
 416203,-428,96,8178,-18,17,27,9821,1,-2,5168,2,174,-29,4879,0,-1,0,0,-1,400,56.0,8114.0,81.28,81.39,-1,
 416223,-422,68,8176,-15,19,27,9821,0,-1,5168,3,175,-3,4879,0,-1,0,0,-1,400,56.0,8131.0,81.39,81.5,-1,
 416233,-440,64,8194,-13,17,26,9821,-6,-3,5160,4,173,-23,4879,0,-1,0,0,-1,400,56.0,8148.0,81.39,81.5,-1,
 416253,-380,66,8164,-16,15,25,9821,-1,2,5168,2,174,-11,4879,0,-1,0,0,-1,400,56.0,8164.0,81.39,81.5,-1,
 416273,-432,72,8162,-16,14,26,9822,0,-2,5168,2,173,-37,4879,0,-1,0,0,-1,400,56.0,8181.0,81.39,81.61,-1,
 416283,-422,50,8154,-17,14,29,9822,3,3,5168,3,172,-58,4879,0,-1,0,0,-1,400,56.0,8197.0,81.39,81.61,-1,
 416303,-430,50,8196,-11,13,24,9822,1,1,5168,5,176,6,4879,0,-1,0,0,-1,400,56.0,8214.0,81.39,81.73,-1,
 416323,-384,52,8316,-9,18,26,9821,-4,-2,5168,4,175,0,4878,0,-1,0,0,-1,400,56.0,8231.0,81.28,81.73,-1,
 416333,-300,20,8222,-14,17,21,9822,-2,-6,5160,4,177,-8,4879,0,-1,0,0,-1,400,56.0,8264.0,81.28,81.61,-1,
 416343,-510,30,8142,-15,15,29,9821,-3,2,5176,3,178,9,4879,0,-1,0,0,-1,400,56.0,8280.0,81.28,81.61,-1,
 416373,-92,72,8330,-17,9,23,9822,3,2,5176,5,171,-39,4878,0,-1,0,0,-1,400,56.0,8297.0,81.28,81.73,-1,
 416393,-122,38,8084,-11,36,29,9822,0,1,5176,1,174,14,4879,0,-1,0,0,-1,400,56.0,8313.0,81.28,81.73,-1,
 416403,-618,144,8004,-17,9,28,9821,1,2,5168,2,171,11,4879,0,-1,0,0,-1,400,56.0,8330.0,81.28,81.73,-1,
 416413,-488,76,8154,-17,21,27,9822,0,0,5160,0,171,-31,4878,0,-1,0,0,-1,400,56.0,8347.0,81.28,81.84,-1,
 416443,-410,64,8254,-16,12,26,9821,-2,1,5176,0,172,-29,4879,0,-1,0,0,-1,400,56.0,8363.0,81.28,81.73,-1,
 416473,-370,64,8192,-16,16,26,9820,-2,-4,5176,1,173,-26,4879,0,-1,0,0,-1,400,56.0,8379.0,81.39,81.73,-1,
 416483,-444,68,8186,-16,10,28,9822,0,-2,5168,2,175,-5,4879,0,-1,0,0,-1,400,56.0,8396.0,81.39,81.84,-1,
 416503,-422,70,8162,-20,17,28,9822,5,6,5168,2,170,-25,4879,0,-1,0,0,-1,400,56.0,8412.0,81.39,81.84,-1,
 416513,-432,52,8194,-17,12,27,9822,-1,1,5168,2,173,6,4878,0,-1,0,0,-1,400,56.0,8430.0,81.39,81.84,-1,
 416533,-422,54,8178,-16,18,29,9821,0,0,5160,0,173,5,4880,0,-1,0,0,-1,400,56.0,8446.0,81.39,81.84,-1,
 416553,-460,48,8188,-17,14,28,9821,3,4,5176,4,177,-12,4880,0,-1,0,0,-1,400,56.0,8462.0,81.39,81.73,-1,
 416573,-414,60,8168,-21,12,29,9820,-3,2,5176,0,177,11,4879,0,-1,0,0,-1,400,56.0,8479.0,81.39,81.73,-1,
 416583,-422,74,8166,-14,13,27,9821,1,2,5168,4,173,-13,4879,0,-1,0,0,-1,400,56.0,8495.0,81.39,81.73,-1,
 416603,-396,66,8164,-21,16,24,9822,0,-2,5168,5,178,0,4879,0,-1,0,0,-1,400,56.0,8512.0,81.39,81.73,-1,
 416613,-420,64,8166,-16,19,25,9822,3,1,5168,4,182,2,4879,0,-1,0,0,-1,400,56.0,8545.0,81.28,81.73,-1,
 416653,-424,64,8144,-17,12,26,9822,-1,0,5176,5,173,-4,4878,0,-1,0,0,-1,400,56.0,8562.0,81.28,81.73,-1,
 416663,-422,66,8172,-12,21,29,9822,-2,2,5176,7,172,-9,4879,0,-1,0,0,-1,400,56.0,8578.0,81.28,81.73,-1,
 416673,-424,26,8150,-15,20,27,9821,1,-2,5176,1,173,-13,4878,0,-1,0,0,-1,400,56.0,8578.0,81.28,81.73,-1,
 416683,-422,52,8162,-18,8,24,9821,-1,-1,5168,-1,171,-7,4879,0,-1,0,0,-1,400,56.0,8595.0,81.39,81.73,-1,
 416693,-412,72,8174,-13,11,26,9821,-6,-3,5168,1,176,2,4879,0,-1,0,0,-1,400,56.0,8612.0,81.39,81.73,-1,
 416723,-362,68,8150,-22,11,22,9822,4,-2,5168,4,178,-3,4879,0,-1,0,0,-1,400,56.0,8628.0,81.28,81.61,-1,
 416753,-454,62,8162,-18,17,24,9821,-5,0,5168,4,168,-12,4878,0,-1,0,0,-1,400,56.0,8661.0,81.28,81.61,-1,
 416763,-442,68,8166,-13,12,25,9821,1,-2,5168,3,170,-9,4878,0,-1,0,0,-1,400,56.0,8677.0,81.17,81.61,-1,
 416773,-456,52,8176,-15,13,25,9821,1,2,5176,5,175,2,4879,0,-1,0,0,-1,400,56.0,8694.0,81.17,81.5,-1,
 416793,-408,50,8172,-15,18,29,9822,0,-2,5168,-1,174,8,4877,0,-1,0,0,-1,400,56.0,8711.0,81.17,81.5,-1,
 416813,-396,62,8176,-14,16,25,9822,-1,3,5168,4,171,-27,4878,0,-1,0,0,-1,400,56.0,8728.0,81.17,81.5,-1,
 416823,-402,70,8166,-18,20,29,9822,0,2,5168,1,171,6,4879,0,-1,0,0,-1,400,56.0,8744.0,81.17,81.5,-1,
 416843,-454,26,8192,-18,12,27,9821,-4,1,5168,1,172,23,4879,0,-1,0,0,-1,400,56.0,8760.0,81.06,81.39,-1,
 416853,-468,74,8160,-18,17,27,9821,-2,1,5176,3,175,3,4879,0,-1,0,0,-1,400,56.0,8777.0,81.06,81.39,-1,
 416883,-374,72,8156,-21,14,26,9823,6,4,5168,3,173,19,4879,0,-1,0,0,-1,400,56.0,8794.0,81.06,81.39,-1,
 416893,-386,52,8176,-12,10,24,9822,1,3,5168,1,168,20,4878,0,-1,0,0,-1,400,56.0,8811.0,81.06,81.39,-1,
 416903,-386,28,8156,-13,17,30,9822,4,1,5184,6,172,41,4879,0,-1,0,0,-1,400,56.0,8827.0,81.06,81.28,-1,
 416933,-396,86,8168,-17,17,29,9821,0,-3,5168,5,182,23,4879,0,-1,0,0,-1,400,56.0,8843.0,81.06,81.28,-1,
 416943,-432,58,8172,-16,18,27,9821,-3,0,5168,0,179,13,4879,0,-1,0,0,-1,400,56.0,8860.0,81.06,81.28,-1,
 416963,-428,68,8180,-14,18,24,9822,1,1,5168,3,179,25,4878,0,-1,0,0,-1,400,56.0,8876.0,81.06,81.17,-1,
 416983,-434,46,8152,-18,12,26,9822,0,-1,5168,3,174,-1,4879,0,-1,0,0,-1,400,56.0,8894.0,81.06,81.06,-1,
 417003,-422,62,8176,-18,13,24,9821,0,2,5176,3,176,0,4878,0,-1,0,0,-1,400,56.0,8910.0,81.06,81.06,-1,
 417013,-424,60,8156,-17,15,29,9821,2,5,5176,3,178,-5,4878,0,-1,0,0,-1,400,56.0,8926.0,81.06,80.73,-1,
 417033,-442,72,8176,-18,16,27,9821,-3,0,5160,8,178,28,4879,0,-1,0,0,-1,400,56.0,8943.0,81.06,80.62,-1,
 417043,-462,66,8172,-10,18,30,9821,-3,-1,5168,2,178,31,4878,0,-1,0,0,-1,400,56.0,8959.0,80.84,80.62,-1,
 417063,-484,48,8142,-18,8,26,9822,-3,2,5168,0,176,14,4879,0,-1,0,0,-1,400,56.0,8975.0,80.84,80.51,-1,
 417083,-432,42,8160,-13,20,26,9821,-6,-1,5176,6,177,16,4879,0,-1,0,0,-1,400,56.0,8993.0,80.95,80.51,-1,
 417113,-440,84,8164,-19,15,29,9821,-1,-5,5168,4,181,53,4878,0,-1,0,0,-1,400,56.0,9026.0,80.95,80.51,-1,
 417123,-402,48,8194,-14,20,24,9821,0,6,5168,1,181,57,4879,0,-1,0,0,-1,400,56.0,9042.0,80.95,80.4,-1,
 417133,-454,70,8186,-14,11,26,9821,1,-1,5168,3,180,45,4879,0,-1,0,0,-1,400,56.0,9058.0,80.95,80.51,-1,
 417163,-434,48,8158,-18,18,29,9821,-7,2,5176,8,182,34,4879,0,-1,0,0,-1,400,56.0,9076.0,80.95,80.51,-1,
 417173,-406,90,8166,-19,16,31,9821,-5,2,5160,3,178,1,4879,0,-1,0,0,-1,400,56.0,9092.0,80.95,80.51,-1,
 417193,-440,62,8164,-11,14,27,9821,3,-2,5160,2,176,4,4878,0,-1,0,0,-1,400,56.0,9109.0,80.95,80.62,-1,
 417203,-424,50,8170,-18,14,26,9821,-6,1,5176,2,180,28,4879,0,-1,0,0,-1,400,56.0,9125.0,80.95,80.62,-1,
 417233,-362,74,8242,-20,22,26,9820,-5,2,5168,5,179,-7,4879,0,-1,0,0,-1,400,56.0,9141.0,80.95,80.84,-1,
 417243,-406,96,8142,-20,16,29,9821,1,-4,5168,3,176,-3,4879,0,-1,0,0,-1,400,56.0,9158.0,81.28,81.06,-1,
 417253,-416,54,8160,-13,12,28,9821,-4,-3,5176,1,179,8,4879,0,-1,0,0,-1,400,56.0,9208.0,81.61,81.5,-1,
 417263,-436,36,8154,-17,13,29,9822,6,0,5168,5,181,15,4879,0,-1,0,0,-1,400,56.0,9224.0,81.5,81.5,-1,
 417333,-468,40,8112,-11,19,28,9823,8,-1,5168,7,176,28,4878,0,-1,0,0,-1,400,56.0,9241.0,81.39,81.39,-1,
 417343,-402,56,8124,-15,10,28,9821,-3,-1,5168,2,175,12,4879,0,-1,0,0,-1,400,56.0,9257.0,81.39,81.17,-1,
 417363,-414,72,8188,-17,15,29,9822,6,-8,5176,6,179,38,4878,0,-1,0,0,-1,400,56.0,9274.0,81.5,81.28,-1,
 417383,-418,58,8184,-13,12,28,9821,-1,-1,5176,5,184,34,4879,0,-1,0,0,-1,400,56.0,9291.0,81.5,81.28,-1,
 417393,-472,68,8180,-17,12,30,9822,5,5,5168,1,180,-6,4878,0,-1,0,0,-1,400,56.0,9324.0,81.73,81.39,-1,
 417423,-434,56,8168,-18,19,28,9822,1,-4,5168,3,184,39,4879,0,-1,0,0,-1,400,56.0,9340.0,81.84,81.5,-1,
 417443,-384,98,8110,-20,16,26,9821,-6,-5,5168,2,182,51,4879,0,-1,0,0,-1,400,56.0,9357.0,81.84,81.39,-1,
 417463,-466,56,8146,-17,16,26,9822,-1,-2,5168,6,178,46,4879,0,-1,0,0,-1,400,56.0,9374.0,81.84,81.39,-1,
 417473,-452,70,8166,-12,9,23,9822,1,0,5160,0,181,46,4878,0,-1,0,0,-1,400,56.0,9390.0,81.73,81.39,-1,
 417493,-462,60,8202,-15,8,27,9822,-4,-1,5160,1,186,73,4879,0,-1,0,0,-1,400,56.0,9407.0,81.73,81.5,-1,
 417513,-420,52,8152,-15,16,26,9822,0,-4,5168,4,182,59,4879,0,-1,0,0,-1,400,56.0,9423.0,81.73,81.5,-1,
 417523,-408,84,8178,-15,19,33,9822,-3,-3,5160,3,183,46,4879,0,-1,0,0,-1,400,56.0,9439.0,81.73,81.5,-1,
 417543,-398,92,8158,-20,16,30,9822,0,-6,5176,3,181,54,4879,0,-1,0,0,-1,400,56.0,9457.0,81.73,81.61,-1,
 417563,-420,76,8180,-14,18,24,9820,-1,1,5168,5,181,71,4879,0,-1,0,0,-1,400,56.0,9473.0,81.73,81.61,-1,
 417583,-420,62,8172,-12,15,26,9821,5,3,5176,3,177,61,4879,0,-1,0,0,-1,400,56.0,9489.0,81.73,81.5,-1,
 417593,-430,82,8176,-14,16,28,9821,-2,0,5168,3,179,51,4879,0,-1,0,0,-1,400,56.0,9506.0,81.84,81.5,-1,
 417613,-408,68,8174,-17,13,23,9821,1,7,5176,6,184,67,4878,0,-1,0,0,-1,400,56.0,9522.0,81.84,81.5,-1,
 417633,-428,48,8148,-18,12,23,9821,0,-1,5168,4,182,77,4879,0,-1,0,0,-1,400,56.0,9540.0,81.84,81.5,-1,
 417653,-420,80,8150,-20,12,24,9822,-3,0,5160,2,181,28,4879,0,-1,0,0,-1,400,56.0,9572.0,81.73,81.5,-1,
 417683,-392,66,8152,-13,14,26,9821,-3,2,5168,2,182,48,4879,0,-1,0,0,-1,400,56.0,9589.0,81.73,81.5,-1,
 417693,-472,44,8192,-17,14,27,9822,4,3,5168,2,179,28,4878,0,-1,0,0,-1,400,56.0,9605.0,81.73,81.5,-1,
 417703,-434,64,8170,-19,18,30,9822,-5,1,5168,1,179,44,4879,0,-1,0,0,-1,400,56.0,9622.0,81.73,81.5,-1,
 417723,-416,58,8178,-12,17,28,9821,1,-2,5160,2,182,27,4879,0,-1,0,0,-1,400,56.0,9639.0,81.73,81.5,-1,
 417743,-394,62,8158,-14,17,28,9822,0,5,5168,5,182,42,4879,0,-1,0,0,-1,400,56.0,9655.0,81.84,81.61,-1,
 417753,-398,80,8188,-16,14,26,9822,5,0,5168,2,183,46,4878,0,-1,0,0,-1,400,56.0,9672.0,81.84,81.61,-1,
 417773,-408,68,8170,-19,9,27,9821,-4,-2,5160,8,182,55,4879,0,-1,0,0,-1,400,56.0,9688.0,81.84,81.61,-1,
 417793,-426,46,8164,-16,14,25,9822,1,-1,5168,0,183,51,4879,0,-1,0,0,-1,400,56.0,9705.0,81.84,81.61,-1,
 417803,-414,94,8166,-22,18,26,9821,-2,-1,5168,1,183,51,4877,0,-1,0,0,-1,400,56.0,9722.0,81.84,81.73,-1,
 417833,-388,46,8162,-15,17,22,9823,4,2,5176,3,180,48,4879,0,-1,0,0,-1,400,56.0,9738.0,81.73,81.73,-1,
 417843,-434,50,8150,-11,17,28,9821,-4,-1,5168,5,179,58,4879,0,-1,0,0,-1,400,56.0,9755.0,81.61,81.73,-1,
 417863,-410,68,8146,-14,16,26,9822,1,2,5176,0,179,68,4879,0,-1,0,0,-1,400,56.0,9771.0,81.73,81.61,-1,
 417873,-428,70,8144,-13,13,31,9822,0,3,5160,3,179,57,4878,0,-1,0,0,-1,400,56.0,9787.0,81.73,81.73,-1,
 417883,-392,52,8160,-14,19,25,9821,3,-2,5160,7,176,73,4879,0,-1,0,0,-1,400,56.0,9804.0,81.84,81.73,-1,
 417893,-398,52,8202,-11,13,30,9821,-7,2,5160,5,177,48,4879,0,-1,0,0,-1,400,56.0,9821.0,81.84,81.73,-1,
 417943,-386,74,8220,-13,15,27,9821,-3,1,5168,3,179,58,4878,0,-1,0,0,-1,400,56.0,9854.0,81.84,81.73,-1,
 417953,-332,48,8240,-16,13,25,9822,4,-2,5168,-1,179,66,4878,0,-1,0,0,-1,400,56.0,9870.0,81.84,81.73,-1,
 417983,-568,52,8104,-16,12,26,9821,0,1,5168,4,176,83,4879,0,-1,0,0,-1,400,56.0,9887.0,81.73,81.73,-1,
 417993,-470,42,8184,-14,17,26,9822,-2,1,5168,5,181,94,4878,0,-1,0,0,-1,400,56.0,9904.0,81.73,81.73,-1,
 418003,-474,74,8160,-13,8,25,9822,-1,4,5168,3,179,82,4878,0,-1,0,0,-1,400,56.0,9921.0,81.84,81.84,-1,
 418023,-356,96,8194,-16,16,29,9822,2,3,5168,4,174,27,4878,0,-1,0,0,-1,400,56.0,9937.0,81.84,81.84,-1,
 418043,-388,56,8164,-17,19,34,9822,3,-2,5168,5,177,66,4879,0,-1,0,0,-1,400,56.0,9953.0,81.84,81.95,-1,
 418063,-462,34,8172,-15,19,29,9822,3,-1,5176,1,182,86,4879,0,-1,0,0,-1,400,56.0,9970.0,81.84,81.95,-1,
 418093,-420,70,8178,-15,16,25,9821,0,1,5168,1,175,83,4878,0,-1,0,0,-1,400,56.0,10004.0,81.84,81.95,-1,
 418113,-392,32,8188,-17,14,20,9821,0,-1,5168,6,179,41,4880,0,-1,0,0,-1,400,56.0,10020.0,81.84,81.95,-1,
 418123,-400,78,8164,-22,13,22,9822,0,3,5168,4,181,50,4878,0,-1,0,0,-1,400,56.0,10036.0,81.84,81.95,-1,
 418143,-340,170,7978,-13,-1,25,9822,5,2,5168,3,179,68,4879,0,-1,0,0,-1,400,56.0,10053.0,81.84,82.06,-1,
 418153,-484,104,8058,-15,13,31,9822,-5,2,5168,4,178,58,4879,0,-1,0,0,-1,400,56.0,10069.0,81.73,82.06,-1,
 418173,-462,28,8280,-15,10,30,9822,3,-1,5168,6,178,65,4879,0,-1,0,0,-1,400,56.0,10086.0,81.73,82.06,-1,
 418193,-296,48,8258,-17,18,26,9823,1,0,5168,4,179,66,4878,0,-1,0,0,-1,400,56.0,10103.0,81.73,82.06,-1,
 418213,-332,50,8070,-13,19,25,9822,5,1,5168,6,174,68,4879,0,-1,0,0,-1,400,56.0,10119.0,81.84,82.06,-1,
 418223,-402,56,8082,-14,15,25,9822,2,-2,5168,0,175,54,4878,0,-1,0,0,-1,400,56.0,10136.0,81.73,82.06,-1,
 418243,-484,60,8184,-13,18,27,9820,-9,-5,5160,0,178,77,4879,0,-1,0,0,-1,400,56.0,10153.0,81.84,81.95,-1,
 418263,-488,46,8172,-15,8,23,9821,0,3,5176,0,177,75,4878,0,-1,0,0,-1,400,56.0,10169.0,81.84,81.95,-1,
 418273,-392,64,8174,-22,9,25,9823,4,-2,5168,-1,178,44,4878,0,-1,0,0,-1,400,56.0,10186.0,81.84,81.84,-1,
 418293,-370,66,8196,-20,16,28,9822,-3,-2,5160,6,183,46,4879,0,-1,0,0,-1,400,56.0,10202.0,81.84,81.84,-1,
 418303,-434,72,8194,-12,18,29,9822,-1,1,5168,3,184,43,4879,0,-1,0,0,-1,400,56.0,10219.0,81.84,81.84,-1,
 418323,-720,146,8534,-21,5,27,9820,-5,0,5160,0,179,26,4878,0,-1,0,0,-1,400,56.0,10236.0,81.73,81.84,-1,
 418343,-430,22,8176,-18,11,25,9822,-2,3,5176,1,177,41,4879,0,-1,0,0,-1,400,56.0,10252.0,81.84,81.84,-1,
 418353,-342,52,8340,-18,15,22,9822,-4,-6,5168,3,175,46,4878,0,-1,0,0,-1,400,56.0,10269.0,81.73,81.84,-1,
 418373,-266,80,8138,-12,23,26,9822,0,-2,5168,6,177,54,4878,0,-1,0,0,-1,400,56.0,10285.0,81.73,81.84,-1,
 418383,-512,102,8092,-19,15,28,9821,-6,0,5160,6,176,63,4878,0,-1,0,0,-1,400,56.0,10303.0,81.84,81.95,-1,
 418413,-440,74,8156,-14,15,24,9821,0,-1,5160,2,178,37,4879,0,-1,0,0,-1,400,56.0,10319.0,81.84,81.84,-1,
 418423,-418,74,8164,-17,13,27,9821,0,1,5160,1,177,26,4879,0,-1,0,0,-1,400,56.0,10335.0,81.84,81.84,-1,
 418443,-412,60,8122,-14,12,28,9820,-7,1,5168,2,168,-4,4879,0,-1,0,0,-1,400,56.0,10352.0,81.73,81.73,-1,
 418463,-426,44,8192,-12,14,25,9821,0,-7,5168,5,173,47,4878,0,-1,0,0,-1,400,56.0,10368.0,81.73,81.73,-1,
 418473,-396,20,8208,-14,14,25,9820,-3,2,5160,0,177,47,4879,0,-1,0,0,-1,400,56.0,10385.0,81.73,81.61,-1,
 418493,-396,66,8116,-20,12,23,9822,-2,-3,5168,1,179,13,4879,0,-1,0,0,-1,400,56.0,10402.0,81.73,81.61,-1,
 418503,-384,66,8154,-16,14,25,9823,13,-3,5176,2,182,15,4879,0,-1,0,0,-1,400,56.0,10418.0,81.73,81.61,-1,
 418523,-400,60,8194,-19,13,25,9821,1,2,5160,-1,178,30,4879,0,-1,0,0,-1,400,56.0,10435.0,81.73,81.61,-1,
 418573,-388,70,8140,-21,13,23,9822,0,3,5168,1,182,50,4879,0,-1,0,0,-1,400,56.0,10485.0,81.73,81.61,-1,
 418583,-378,54,8156,-20,17,25,9822,9,0,5168,2,186,58,4878,0,-1,0,0,-1,400,56.0,10501.0,81.73,81.61,-1,
 418613,-414,78,8184,-18,16,29,9821,-1,0,5176,6,178,46,4879,0,-1,0,0,-1,400,56.0,10518.0,81.73,81.61,-1,
 418623,-452,42,8140,-14,17,28,9823,7,-2,5168,3,178,67,4879,0,-1,0,0,-1,400,56.0,10535.0,81.73,81.61,-1,
 418643,-428,40,8162,-21,13,29,9821,0,0,5168,5,178,42,4879,0,-1,0,0,-1,400,56.0,10551.0,81.73,81.61,-1,
 418663,-436,56,8148,-14,13,27,9821,-2,-1,5176,5,174,27,4878,0,-1,0,0,-1,400,56.0,10568.0,81.73,81.73,-1,
 418673,-430,42,8162,-19,14,30,9821,0,2,5160,0,174,32,4878,0,-1,0,0,-1,400,56.0,10584.0,81.73,81.73,-1,
 418693,-362,62,8170,-18,13,26,9823,8,1,5176,3,176,61,4879,0,-1,0,0,-1,400,56.0,10602.0,81.73,81.73,-1,
 418723,-440,58,8168,-20,17,27,9821,0,1,5160,1,183,77,4879,0,-1,0,0,-1,400,56.0,10634.0,81.73,81.73,-1,
 418743,-402,54,8164,-16,16,24,9821,1,-3,5176,4,180,39,4878,0,-1,0,0,-1,400,56.0,10651.0,81.73,81.73,-1,
 418753,-412,64,8144,-19,19,28,9821,-2,0,5168,-2,180,49,4879,0,-1,0,0,-1,400,56.0,10668.0,81.84,81.73,-1,
 418773,-402,28,8182,-13,13,22,9820,-12,-4,5160,3,176,108,4879,0,-1,0,0,-1,400,56.0,10685.0,81.73,81.73,-1,
 418793,-402,56,8178,-21,15,24,9822,5,2,5176,7,173,83,4879,0,-1,0,0,-1,400,56.0,10701.0,81.84,81.73,-1,
 418803,-414,52,8152,-17,15,30,9822,-4,5,5168,0,176,60,4879,0,-1,0,0,-1,400,56.0,10717.0,81.84,81.73,-1,
 418823,-414,78,8134,-20,11,26,9822,1,1,5168,3,180,77,4879,0,-1,0,0,-1,400,56.0,10735.0,81.84,81.73,-1,
 418833,-392,60,8180,-15,15,26,9821,-1,1,5168,6,177,66,4879,0,-1,0,0,-1,400,56.0,10751.0,81.84,81.73,-1,
 418853,-424,68,8174,-15,10,27,9823,7,6,5168,4,183,63,4879,0,-1,0,0,-1,400,56.0,10767.0,81.84,81.73,-1,
 418873,-422,54,8182,-16,20,23,9822,0,2,5168,0,180,38,4878,0,-1,0,0,-1,400,56.0,10784.0,81.84,81.73,-1,
 418893,-394,48,8190,-16,10,25,9821,-4,1,5176,6,180,46,4878,0,-1,0,0,-1,400,56.0,10800.0,81.84,81.73,-1,
 418903,-424,92,8158,-19,16,28,9822,4,3,5176,4,178,69,4879,0,-1,0,0,-1,400,56.0,10818.0,81.73,81.73,-1,
 418923,-420,48,8164,-15,17,28,9822,0,0,5168,5,180,93,4879,0,-1,0,0,-1,400,56.0,10834.0,81.84,81.73,-1,
 418943,-434,44,8164,-19,16,29,9822,11,3,5176,2,176,77,4879,0,-1,0,0,-1,400,56.0,10850.0,81.73,81.73,-1,
 418953,-430,50,8160,-20,17,23,9822,1,3,5168,1,178,67,4879,0,-1,0,0,-1,400,56.0,10884.0,81.73,81.73,-1,
 418993,-386,90,8180,-16,12,27,9822,3,0,5176,2,178,85,4878,0,-1,0,0,-1,400,56.0,10901.0,81.73,81.61,-1,
 419003,-408,86,8184,-11,16,31,9821,4,3,5168,2,177,67,4877,0,-1,0,0,-1,400,56.0,10917.0,81.73,81.61,-1,
 419023,-424,48,8170,-13,19,25,9822,5,2,5168,1,180,62,4879,0,-1,0,0,-1,400,56.0,10933.0,81.73,81.61,-1,
 419033,-408,32,8192,-18,11,27,9823,0,-4,5176,4,178,47,4879,0,-1,0,0,-1,400,56.0,10950.0,81.73,81.61,-1,
 419053,-372,56,8172,-18,18,24,9822,5,1,5168,2,179,66,4879,0,-1,0,0,-1,400,56.0,10967.0,81.73,81.61,-1,
 419073,-408,68,8178,-17,22,27,9821,-2,7,5176,2,181,92,4878,0,-1,0,0,-1,400,56.0,10984.0,81.73,81.61,-1,
 419083,-422,70,8160,-16,15,24,9822,-2,-2,5168,5,179,96,4879,0,-1,0,0,-1,400,56.0,11000.0,81.73,81.61,-1,
 419103,-430,56,8150,-14,9,31,9822,-2,-6,5168,4,173,70,4879,0,-1,0,0,-1,400,56.0,11016.0,81.73,81.61,-1,
 419123,-432,52,8190,-18,8,32,9821,-1,0,5168,2,177,52,4879,0,-1,0,0,-1,400,56.0,11034.0,81.73,81.61,-1,
 419133,-404,48,8150,-15,18,27,9822,4,-3,5168,4,175,46,4878,0,-1,0,0,-1,400,56.0,11050.0,81.73,81.61,-1,
 419153,-426,84,8176,-19,17,29,9821,-1,1,5168,3,179,66,4879,0,-1,0,0,-1,400,56.0,11066.0,81.84,81.61,-1,
 419163,-420,68,8154,-19,14,27,9822,5,0,5176,5,179,67,4879,0,-1,0,0,-1,400,56.0,11083.0,81.73,81.73,-1,
 419173,-422,78,8158,-11,15,26,9822,-2,1,5176,-2,179,50,4879,0,-1,0,0,-1,400,56.0,11100.0,81.84,81.73,-1,
 419203,-410,42,8180,-13,18,28,9822,6,0,5168,5,182,76,4878,0,-1,0,0,-1,400,56.0,11133.0,81.73,81.73,-1,
 419233,-398,78,8202,-20,15,32,9822,3,0,5168,6,182,76,4878,0,-1,0,0,-1,400,56.0,11149.0,81.73,81.61,-1,
 419253,-360,60,8208,-21,15,27,9822,-4,-1,5168,2,179,104,4879,0,-1,0,0,-1,400,56.0,11166.0,81.73,81.5,-1,
 419273,-444,46,8156,-20,12,27,9822,0,4,5176,6,177,96,4878,0,-1,0,0,-1,400,56.0,11183.0,81.84,81.5,-1,
 419283,-438,48,8162,-14,13,30,9822,-2,1,5168,5,179,84,4878,0,-1,0,0,-1,400,56.0,11200.0,81.73,81.5,-1,
 419293,-424,56,8166,-17,12,28,9822,1,3,5176,1,178,73,4878,0,-1,0,0,-1,400,56.0,11216.0,81.73,81.5,-1,
 419313,-404,40,8158,-16,12,29,9821,-3,-3,5168,4,179,60,4879,0,-1,0,0,-1,400,56.0,11250.0,81.84,81.5,-1,
 419323,-444,52,8166,-11,11,31,9821,-2,0,5176,2,178,49,4879,0,-1,0,0,-1,400,56.0,11266.0,81.84,81.5,-1,
 419353,-394,36,8158,-16,18,20,9822,6,4,5168,4,179,48,4879,0,-1,0,0,-1,400,56.0,11283.0,81.84,81.5,-1,
 419373,-414,80,8152,-12,20,30,9822,1,1,5176,6,181,75,4879,0,-1,0,0,-1,400,56.0,11299.0,81.84,81.61,-1,
 419403,-406,76,8134,-20,17,26,9822,1,-1,5168,6,180,106,4879,0,-1,0,0,-1,400,56.0,11315.0,81.84,81.5,-1,
 419423,-450,66,8194,-18,19,29,9821,-1,-3,5176,2,181,79,4878,0,-1,0,0,-1,400,56.0,11333.0,81.73,81.5,-1,
 419433,-382,74,8152,-15,14,27,9823,5,1,5168,4,179,79,4879,0,-1,0,0,-1,400,56.0,11349.0,81.84,81.61,-1,
 419453,-392,42,8180,-19,16,26,9822,0,-3,5168,5,180,68,4879,0,-1,0,0,-1,400,56.0,11365.0,81.84,81.61,-1,
 419473,-412,66,8164,-14,17,25,9821,-5,-2,5168,3,177,51,4879,0,-1,0,0,-1,400,56.0,11382.0,81.73,81.73,-1,
 419493,-400,62,8132,-11,19,28,9822,2,0,5160,0,183,65,4878,0,-1,0,0,-1,400,56.0,11399.0,81.73,81.61,-1,
 419503,-412,30,8166,-22,13,29,9821,-2,-1,5176,2,182,71,4879,0,-1,0,0,-1,400,56.0,11416.0,81.84,81.61,-1,
 419523,-408,56,8160,-17,19,26,9821,-1,2,5176,3,186,83,4878,0,-1,0,0,-1,400,56.0,11432.0,81.73,81.61,-1,
 419533,-422,52,8192,-15,18,25,9821,-7,-2,5160,4,182,71,4878,0,-1,0,0,-1,400,56.0,11448.0,81.73,81.61,-1,
 419553,-438,82,8160,-16,16,29,9820,-8,-6,5176,4,179,83,4879,0,-1,0,0,-1,400,56.0,11465.0,81.73,81.61,-1,
 419563,-442,52,8134,-14,17,25,9821,-1,1,5168,0,177,93,4878,0,-1,0,0,-1,400,56.0,11482.0,81.84,81.73,-1,
 419583,-410,48,8172,-19,14,21,9821,-1,-1,5160,3,174,109,4879,0,-1,0,0,-1,400,56.0,11499.0,81.73,81.73,-1,
 419603,-406,36,8170,-12,13,29,9821,-3,0,5168,1,176,93,4878,0,-1,0,0,-1,400,56.0,11515.0,81.84,81.73,-1,
 419623,-424,64,8184,-19,20,23,9822,2,4,5168,4,180,90,4879,0,-1,0,0,-1,400,56.0,11531.0,81.73,81.73,-1,
 419643,-396,66,8164,-18,12,21,9820,-5,0,5168,3,176,73,4879,0,-1,0,0,-1,400,56.0,11549.0,81.73,81.73,-1,
 419653,-400,80,8180,-14,11,27,9821,-5,-1,5176,2,179,71,4879,0,-1,0,0,-1,400,56.0,11565.0,81.73,81.61,-1,
 419663,-382,56,8166,-16,18,27,9822,4,2,5176,9,180,61,4879,0,-1,0,0,-1,400,56.0,11582.0,81.73,81.61,-1,
 419683,-404,58,8182,-19,16,30,9821,0,-3,5168,5,181,66,4879,0,-1,0,0,-1,400,56.0,11598.0,81.73,81.61,-1,
 419703,-440,32,8154,-15,20,27,9822,0,1,5184,5,182,81,4880,0,-1,0,0,-1,400,56.0,11614.0,81.84,81.61,-1,
 419723,-462,70,8170,-16,16,26,9821,-6,-5,5168,2,173,67,4878,0,-1,0,0,-1,400,56.0,11632.0,81.84,81.5,-1,
 419733,-412,58,8172,-15,14,29,9822,2,1,5176,4,170,82,4878,0,-1,0,0,-1,400,56.0,11648.0,81.84,81.39,-1,
 419753,-376,76,8164,-23,12,31,9820,-2,-1,5176,5,174,80,4878,0,-1,0,0,-1,400,56.0,11664.0,81.84,81.39,-1,
 419763,-442,78,8166,-17,13,24,9821,2,2,5176,6,177,48,4879,0,-1,0,0,-1,400,56.0,11681.0,81.84,81.39,-1,
 419793,-432,36,8162,-18,17,23,9822,3,-1,5168,2,181,80,4879,0,-1,0,0,-1,400,56.0,11698.0,81.84,81.39,-1,
 419803,-434,62,8180,-17,14,28,9821,3,-1,5176,2,177,77,4879,0,-1,0,0,-1,400,56.0,11715.0,81.84,81.39,-1,
 419813,-446,36,8168,-15,17,24,9821,2,-1,5168,8,179,50,4879,0,-1,0,0,-1,400,56.0,11747.0,81.84,81.39,-1,
 419833,-398,56,8152,-20,13,28,9821,0,-5,5176,4,177,47,4879,0,-1,0,0,-1,400,56.0,11781.0,81.84,81.39,-1,
 419883,-438,52,8170,-14,13,28,9821,2,2,5168,0,175,49,4878,0,-1,0,0,-1,400,56.0,11798.0,81.84,81.39,-1,
 419903,-414,50,8200,-16,15,24,9821,-1,-1,5176,6,178,82,4879,0,-1,0,0,-1,400,56.0,11814.0,81.84,81.39,-1,
 419923,-420,72,8178,-13,13,26,9821,-2,-4,5168,3,182,101,4878,0,-1,0,0,-1,400,56.0,11830.0,81.84,81.28,-1,
 419933,-418,26,8140,-16,14,25,9822,6,-1,5184,6,181,84,4878,0,-1,0,0,-1,400,56.0,11848.0,81.84,81.39,-1,
 419953,-400,80,8168,-18,18,24,9823,4,-1,5176,4,179,61,4878,0,-1,0,0,-1,400,56.0,11864.0,81.84,81.39,-1,
 419973,-452,34,8162,-15,15,27,9822,5,-5,5160,2,181,53,4878,0,-1,0,0,-1,400,56.0,11881.0,81.84,81.39,-1,
 419983,-458,70,8172,-17,16,23,9822,1,-2,5176,5,180,43,4878,0,-1,0,0,-1,400,56.0,11897.0,81.84,81.5,-1,
 420003,-408,50,8176,-15,16,27,9821,3,1,5176,5,183,66,4879,0,-1,0,0,-1,400,56.0,11913.0,81.84,81.5,-1,
 420013,-396,52,8168,-17,14,28,9821,1,5,5176,9,181,72,4878,0,-1,0,0,-1,400,56.0,11931.0,81.84,81.61,-1,
 420033,-408,42,8174,-19,20,29,9822,4,3,5176,4,181,58,4878,0,-1,0,0,-1,400,56.0,11947.0,81.84,81.61,-1,
 420053,-390,56,8144,-16,14,23,9822,3,0,5176,3,177,49,4879,0,-1,0,0,-1,400,56.0,11963.0,81.73,81.61,-1,
 420073,-422,22,8168,-14,15,31,9821,1,2,5168,2,176,52,4879,0,-1,0,0,-1,400,56.0,11980.0,81.84,81.61,-1,
 420083,-426,56,8176,-15,16,27,9821,-3,1,5176,2,180,64,4878,0,-1,0,0,-1,400,56.0,11997.0,81.84,81.73,-1,
 420103,-418,60,8178,-20,16,27,9822,0,1,5176,0,178,64,4878,0,-1,0,0,-1,400,56.0,12014.0,81.84,81.61,-1,
 420123,-426,58,8190,-16,17,28,9822,3,-5,5168,5,184,61,4879,0,-1,0,0,-1,400,56.0,12030.0,81.84,81.61,-1,
 420133,-392,60,8146,-18,15,26,9822,2,1,5176,5,181,46,4878,0,-1,0,0,-1,400,56.0,12046.0,81.84,81.61,-1,
 420143,-374,72,8136,-15,13,26,9823,5,2,5168,3,185,65,4877,0,-1,0,0,-1,400,56.0,12063.0,81.84,81.61,-1,
 420153,-404,54,8164,-11,13,27,9823,5,0,5168,3,182,52,4879,0,-1,0,0,-1,400,56.0,12080.0,81.84,81.61,-1,
 420183,-430,58,8168,-16,14,30,9822,1,-2,5176,6,179,91,4878,0,-1,0,0,-1,400,56.0,12097.0,81.84,81.61,-1,
 420203,-366,58,8164,-13,18,26,9822,-3,0,5168,1,178,63,4879,0,-1,0,0,-1,400,56.0,12113.0,81.84,81.61,-1,
 420223,-430,68,8200,-18,20,29,9821,-5,3,5160,4,178,103,4878,0,-1,0,0,-1,400,56.0,12129.0,81.84,81.5,-1,
 420233,-406,74,8144,-14,10,22,9822,1,-1,5176,5,177,98,4878,0,-1,0,0,-1,400,56.0,12147.0,81.84,81.5,-1,
 420253,-422,54,8174,-16,14,28,9820,-5,6,5168,3,180,75,4879,0,-1,0,0,-1,400,56.0,12163.0,81.84,81.5,-1,
 420263,-424,70,8184,-16,21,26,9821,1,0,5168,5,178,44,4879,0,-1,0,0,-1,400,56.0,12180.0,81.84,81.5,-1,
 420283,-412,34,8174,-19,14,30,9821,-8,-6,5168,6,176,60,4878,0,-1,0,0,-1,400,56.0,12196.0,81.84,81.39,-1,
 420293,-438,70,8174,-17,14,27,9823,10,-1,5176,3,178,80,4879,0,-1,0,0,-1,400,56.0,12212.0,81.84,81.5,-1,
 420323,-416,74,8146,-20,15,26,9823,5,-1,5168,4,176,64,4879,0,-1,0,0,-1,400,56.0,12230.0,81.84,81.5,-1,
 420333,-424,60,8170,-16,15,28,9822,7,-4,5176,6,180,85,4879,0,-1,0,0,-1,400,56.0,12246.0,81.84,81.39,-1,
 420343,-414,64,8158,-19,17,27,9822,0,-3,5168,8,185,82,4878,0,-1,0,0,-1,400,56.0,12262.0,81.84,81.5,-1,
 420363,-410,90,8154,-13,16,27,9822,1,1,5184,2,181,36,4879,0,-1,0,0,-1,400,56.0,12279.0,81.84,81.39,-1,
 420383,-436,58,8172,-20,17,24,9823,8,0,5176,3,182,46,4879,0,-1,0,0,-1,400,56.0,12296.0,81.84,81.5,-1,
 420403,-436,44,8172,-16,16,25,9822,-1,2,5168,-2,173,46,4878,0,-1,0,0,-1,400,56.0,12313.0,81.84,81.5,-1,
 420413,-406,48,8164,-17,10,22,9820,-2,-1,5168,6,174,44,4878,0,-1,0,0,-1,400,56.0,12329.0,81.84,81.5,-1,
 420433,-408,66,8168,-16,11,27,9821,-5,-4,5168,3,176,65,4879,0,-1,0,0,-1,400,56.0,12345.0,81.84,81.5,-1,
 420443,-434,86,8148,-14,16,26,9822,5,3,5176,0,175,79,4879,0,-1,0,0,-1,400,56.0,12362.0,81.84,81.61,-1,
 420453,-410,90,8154,-17,12,25,9820,0,7,5160,1,177,61,4879,0,-1,0,0,-1,400,56.0,12396.0,81.84,81.61,-1,
 420493,-428,66,8154,-16,14,30,9821,-1,-2,5168,2,176,81,4879,0,-1,0,0,-1,400,56.0,12428.0,81.84,81.5,-1,
 420533,-398,58,8160,-16,19,28,9822,3,-2,5168,0,181,101,4879,0,-1,0,0,-1,400,56.0,12446.0,81.84,81.5,-1,
 420553,-422,70,8164,-17,20,22,9821,-4,-4,5168,0,184,89,4879,0,-1,0,0,-1,400,56.0,12462.0,81.84,81.5,-1,
 420563,-418,32,8152,-19,17,28,9822,5,1,5184,8,183,60,4878,0,-1,0,0,-1,400,56.0,12479.0,81.84,81.5,-1,
 420583,-442,80,8170,-14,15,26,9822,1,3,5168,1,178,55,4878,0,-1,0,0,-1,400,56.0,12495.0,81.84,81.5,-1,
 420603,-458,54,8200,-18,10,25,9822,1,0,5168,0,178,44,4878,0,-1,0,0,-1,400,56.0,12511.0,81.84,81.61,-1,
 420613,-424,46,8182,-21,19,29,9822,4,-6,5168,10,178,43,4878,0,-1,0,0,-1,400,56.0,12529.0,81.84,81.5,-1,
 420633,-392,70,8144,-22,19,33,9821,1,2,5160,2,175,67,4878,0,-1,0,0,-1,400,56.0,12545.0,81.84,81.61,-1,
 420653,-420,90,8162,-17,14,26,9821,-4,3,5168,0,177,67,4878,0,-1,0,0,-1,400,56.0,12561.0,81.84,81.61,-1,
 420663,-422,76,8146,-13,13,28,9822,0,-1,5184,4,177,63,4879,0,-1,0,0,-1,400,56.0,12578.0,81.84,81.61,-1,
 420673,-426,80,8160,-17,16,29,9822,10,-1,5168,3,176,39,4879,0,-1,0,0,-1,400,56.0,12595.0,81.84,81.61,-1,
 420703,-428,76,8192,-18,13,21,9822,0,0,5168,5,181,80,4878,0,-1,0,0,-1,400,56.0,12612.0,81.84,81.61,-1,
 420713,-432,30,8168,-18,15,29,9821,-7,2,5176,0,180,90,4879,0,-1,0,0,-1,400,56.0,12628.0,81.84,81.61,-1,
 420733,-362,46,8162,-14,11,26,9823,3,-3,5160,3,179,55,4878,0,-1,0,0,-1,400,56.0,12644.0,81.84,81.5,-1,
 420743,-378,62,8170,-21,19,27,9820,-5,-4,5168,4,174,45,4878,0,-1,0,0,-1,400,56.0,12661.0,81.84,81.5,-1,
 420753,-374,78,8164,-14,20,25,9822,1,1,5168,3,175,22,4879,0,-1,0,0,-1,400,56.0,12678.0,81.84,81.5,-1,
 420773,-434,50,8168,-14,15,27,9821,-2,3,5168,4,175,40,4878,0,-1,0,0,-1,400,56.0,12695.0,81.84,81.5,-1,
 420803,-478,48,8184,-16,12,25,9821,-1,-5,5168,5,179,80,4879,0,-1,0,0,-1,400,56.0,12711.0,81.84,81.5,-1,
 420813,-374,72,8156,-18,17,28,9821,0,0,5176,7,182,70,4879,0,-1,0,0,-1,400,56.0,12727.0,81.95,81.5,-1,
 420833,-416,74,8162,-18,17,24,9821,-1,2,5160,1,182,71,4879,0,-1,0,0,-1,400,56.0,12745.0,81.84,81.5,-1,
 420853,-456,68,8176,-12,15,28,9821,0,2,5168,2,180,62,4878,0,-1,0,0,-1,400,56.0,12761.0,81.84,81.5,-1,
 420863,-448,50,8160,-18,16,27,9822,8,3,5176,8,178,59,4878,0,-1,0,0,-1,400,56.0,12778.0,81.84,81.39,-1,
 420883,-422,62,8180,-17,12,24,9822,0,4,5160,1,175,77,4879,0,-1,0,0,-1,400,56.0,12794.0,81.84,81.39,-1,
 420893,-428,88,8172,-19,14,24,9822,3,0,5168,3,179,82,4879,0,-1,0,0,-1,400,56.0,12810.0,81.84,81.39,-1,
 420903,-434,56,8160,-19,18,24,9822,4,4,5176,4,180,75,4878,0,-1,0,0,-1,400,56.0,12828.0,81.95,81.5,-1,
 420913,-418,70,8174,-18,11,26,9822,5,2,5176,5,179,65,4878,0,-1,0,0,-1,400,56.0,12828.0,81.95,81.5,-1,
 420923,-418,44,8164,-13,14,25,9822,0,5,5168,2,181,67,4878,0,-1,0,0,-1,400,56.0,12844.0,81.84,81.5,-1,
 420953,-402,74,8162,-16,18,25,9823,-5,-4,5168,5,177,80,4879,0,-1,0,0,-1,400,56.0,12861.0,81.84,81.5,-1,
 420973,-430,64,8174,-16,14,26,9823,3,-2,5160,2,179,82,4879,0,-1,0,0,-1,400,56.0,12877.0,81.84,81.5,-1,
 420983,-426,98,8178,-14,18,29,9821,-2,5,5168,2,181,69,4878,0,-1,0,0,-1,400,56.0,12894.0,81.84,81.5,-1,
 421003,-466,84,8174,-14,16,28,9821,-5,-2,5168,6,181,69,4878,0,-1,0,0,-1,400,56.0,12927.0,81.84,81.61,-1,
 421033,-420,80,8156,-17,17,28,9822,3,-1,5168,6,174,41,4878,0,-1,0,0,-1,400,56.0,12943.0,81.84,81.73,-1,
 421053,-378,94,8198,-17,18,26,9822,7,1,5168,2,180,70,4879,0,-1,0,0,-1,400,56.0,12960.0,81.84,81.73,-1,
 421063,-398,54,8166,-15,21,31,9821,0,3,5176,5,185,87,4879,0,-1,0,0,-1,400,56.0,12977.0,81.84,81.73,-1,
 421073,-386,48,8182,-19,21,28,9821,-1,0,5160,0,183,61,4879,0,-1,0,0,-1,400,56.0,13060.0,81.95,81.61,-1,
 421103,-472,78,8158,-18,17,26,9821,4,2,5168,3,178,33,4879,0,-1,0,0,-1,400,56.0,13077.0,81.95,81.61,-1,
 421163,-378,72,8160,-15,14,25,9823,7,-3,5168,2,181,46,4879,0,-1,0,0,-1,400,56.0,13093.0,81.95,81.5,-1,
 421203,-416,62,8196,-16,15,25,9821,0,1,5176,4,178,59,4879,0,-1,0,0,-1,400,56.0,13109.0,81.84,81.5,-1,
 421213,-402,70,8166,-17,6,27,9820,-4,-2,5160,8,174,13,4879,0,-1,0,0,-1,400,56.0,13127.0,81.95,81.5,-1,
 421233,-354,68,8170,-10,14,25,9821,-5,0,5168,6,180,54,4878,0,-1,0,0,-1,400,56.0,13143.0,81.84,81.39,-1,
 421253,-476,-106,8030,-16,5,26,9821,0,6,5168,4,177,47,4879,0,-1,0,0,-1,400,56.0,13160.0,81.84,81.39,-1,
 421263,-316,130,8418,-14,21,24,9822,1,0,5160,0,182,46,4880,0,-1,0,0,-1,400,56.0,13176.0,81.84,81.39,-1,
 421283,-114,-14,8060,-17,39,25,9820,-4,-1,5160,3,184,83,4879,0,-1,0,0,-1,400,56.0,13193.0,81.84,81.39,-1,
 421303,-574,58,7772,-20,28,28,9822,5,-1,5176,1,182,37,4878,0,-1,0,0,-1,400,56.0,13210.0,81.84,81.39,-1,
 421313,-520,56,8068,-21,35,26,9822,-2,-4,5168,7,185,27,4879,0,-1,0,0,-1,400,56.0,13226.0,81.84,81.28,-1,
 421323,-696,66,7962,-20,3,27,9822,0,4,5168,2,187,32,4879,0,-1,0,0,-1,400,56.0,13226.0,81.84,81.28,-1,
 421333,-638,58,8048,-15,10,29,9821,-3,-4,5160,2,182,49,4879,0,-1,0,0,-1,400,56.0,13242.0,81.84,81.28,-1,
 421353,-472,112,8104,-18,8,28,9822,0,-4,5168,2,178,67,4879,0,-1,0,0,-1,400,56.0,13259.0,81.84,81.28,-1,
 421363,-314,42,8250,-14,16,28,9822,2,-2,5160,0,179,98,4879,0,-1,0,0,-1,400,56.0,13276.0,81.84,81.39,-1,
 421383,-344,44,8252,-13,15,28,9821,-2,-1,5160,4,179,101,4878,0,-1,0,0,-1,400,56.0,13293.0,81.84,81.28,-1,
 421413,-320,22,8206,-13,22,26,9822,0,3,5168,1,191,111,4879,0,-1,0,0,-1,400,56.0,13325.0,81.84,81.5,-1,
 421433,-440,60,8096,-10,21,26,9821,-6,3,5168,6,188,88,4879,0,-1,0,0,-1,400,56.0,13343.0,81.84,81.5,-1,
 421443,-478,88,8108,-11,8,27,9822,6,-4,5176,0,188,105,4879,0,-1,0,0,-1,400,56.0,13359.0,81.84,81.5,-1,
 421463,-466,44,8174,-24,15,29,9821,1,2,5168,3,182,66,4879,0,-1,0,0,-1,400,56.0,13376.0,81.84,81.61,-1,
 421483,-398,68,8180,-10,16,29,9820,-2,1,5168,0,180,57,4879,0,-1,0,0,-1,400,56.0,13392.0,81.84,81.5,-1,
 421493,-406,64,8200,-12,13,25,9821,-5,2,5168,2,182,74,4879,0,-1,0,0,-1,400,56.0,13408.0,81.84,81.5,-1,
 421513,-416,72,8190,-14,14,27,9822,0,1,5160,5,179,61,4879,0,-1,0,0,-1,400,56.0,13426.0,81.84,81.61,-1,
 421523,-412,58,8158,-17,14,29,9821,-3,-3,5168,3,180,57,4879,0,-1,0,0,-1,400,56.0,13459.0,81.84,81.61,-1,
 421553,-418,60,8178,-13,15,26,9821,0,2,5176,1,176,47,4878,0,-1,0,0,-1,400,56.0,13475.0,81.84,81.61,-1,
 421583,-414,44,8170,-15,17,26,9821,-2,0,5160,4,177,54,4879,0,-1,0,0,-1,400,56.0,13492.0,81.84,81.73,-1,
 421603,-422,68,8172,-20,13,29,9821,0,6,5176,3,175,28,4879,0,-1,0,0,-1,400,56.0,13509.0,81.84,81.61,-1,
 421613,-420,86,8170,-14,14,28,9821,0,-3,5168,2,175,33,4878,0,-1,0,0,-1,400,56.0,13525.0,81.84,81.61,-1,
 421633,-400,54,8146,-14,17,22,9821,-2,-3,5168,3,176,76,4879,0,-1,0,0,-1,400,56.0,13541.0,81.84,81.61,-1,
 421653,-390,98,8156,-18,11,31,9822,-2,1,5168,1,182,65,4879,0,-1,0,0,-1,400,56.0,13558.0,81.84,81.61,-1,
 421663,-420,76,8168,-17,16,29,9822,0,2,5168,1,182,67,4878,0,-1,0,0,-1,400,56.0,13575.0,81.95,81.61,-1,
 421683,-416,82,8166,-19,9,29,9822,-1,3,5168,6,176,84,4879,0,-1,0,0,-1,400,56.0,13592.0,81.84,81.5,-1,
 421703,-484,52,8156,-15,11,27,9821,-2,-1,5168,2,178,63,4878,0,-1,0,0,-1,400,56.0,13608.0,81.95,81.5,-1,
 421713,-384,64,8164,-17,22,28,9821,-2,0,5176,5,179,54,4879,0,-1,0,0,-1,400,56.0,13624.0,81.84,81.5,-1,
 421723,-10,-80,8128,-14,31,26,9821,-4,1,5168,4,176,51,4878,0,-1,0,0,-1,400,56.0,13642.0,81.84,81.5,-1,
 421753,-658,100,7974,-18,20,30,9821,-5,-2,5168,2,182,78,4879,0,-1,0,0,-1,400,56.0,13675.0,81.84,81.5,-1,
 421763,-380,92,8274,-19,2,23,9822,-8,-2,5168,0,179,82,4879,0,-1,0,0,-1,400,56.0,13691.0,81.84,81.5,-1,
 421793,-320,88,8302,-15,13,28,9823,-1,0,5168,1,188,167,4879,0,-1,0,0,-1,400,56.0,13725.0,81.84,81.39,-1,
 421813,-362,42,8216,-18,17,26,9822,-1,-1,5168,0,179,50,4879,0,-1,0,0,-1,400,56.0,13741.0,81.84,81.39,-1,
 421843,-420,68,8100,-14,13,26,9822,3,0,5176,4,173,71,4878,0,-1,0,0,-1,400,56.0,13758.0,81.84,81.39,-1,
 421863,-416,-16,8174,-24,15,28,9821,0,-1,5168,-1,178,95,4878,0,-1,0,0,-1,400,56.0,13774.0,81.84,81.5,-1,
 421883,-374,52,8168,-18,18,28,9822,-1,2,5168,4,184,89,4879,0,-1,0,0,-1,400,56.0,13791.0,81.84,81.5,-1,
 421903,-430,72,8136,-20,16,30,9822,1,2,5176,3,186,90,4879,0,-1,0,0,-1,400,56.0,13808.0,81.84,81.39,-1,
 421913,-456,46,8182,-18,15,24,9821,0,-2,5168,5,185,67,4878,0,-1,0,0,-1,400,56.0,13824.0,81.84,81.28,-1,
 421933,-440,58,8134,-13,19,23,9823,6,4,5168,4,185,105,4879,0,-1,0,0,-1,400,56.0,13840.0,81.84,81.28,-1,
 421953,-484,50,8174,-8,16,26,9821,0,1,5168,2,184,94,4879,0,-1,0,0,-1,400,56.0,13857.0,81.84,81.28,-1,
 421973,-404,44,8136,-18,15,27,9822,1,-1,5176,4,177,64,4879,0,-1,0,0,-1,400,56.0,13891.0,81.84,81.39,-1,
 421993,-390,32,8164,-15,22,27,9821,-6,-2,5168,1,176,50,4878,0,-1,0,0,-1,400,56.0,13907.0,81.84,81.39,-1,
 422003,-404,68,8166,-18,16,26,9821,-4,3,5168,6,175,72,4878,0,-1,0,0,-1,400,56.0,13907.0,81.84,81.39,-1,
 422013,-394,70,8208,-19,18,27,9821,-3,-3,5176,6,178,81,4879,0,-1,0,0,-1,400,56.0,13923.0,81.84,81.5,-1,
 422033,-392,72,8148,-16,17,23,9820,-3,2,5168,3,175,68,4879,0,-1,0,0,-1,400,56.0,13941.0,81.84,81.5,-1,
 422043,-464,60,8160,-19,17,28,9821,-3,-6,5168,6,177,58,4879,0,-1,0,0,-1,400,56.0,13957.0,81.84,81.5,-1,
 422063,-438,44,8188,-9,15,25,9822,-1,2,5168,10,186,65,4878,0,-1,0,0,-1,400,56.0,13974.0,81.84,81.5,-1,
 422083,-414,56,8160,-18,12,27,9822,-4,-1,5168,5,182,86,4879,0,-1,0,0,-1,400,56.0,13990.0,81.84,81.5,-1,
 422093,-394,50,8172,-17,16,26,9821,4,-1,5160,3,179,86,4879,0,-1,0,0,-1,400,56.0,14006.0,81.84,81.5,-1,
 422103,-380,62,8186,-14,13,23,9822,0,2,5176,4,179,75,4877,0,-1,0,0,-1,400,56.0,14024.0,81.84,81.5,-1,
 422133,-382,88,8168,-14,17,31,9822,4,-2,5168,5,181,91,4878,0,-1,0,0,-1,400,56.0,14040.0,81.84,81.5,-1,
 422153,-432,64,8138,-13,14,29,9822,-2,0,5176,0,184,54,4878,0,-1,0,0,-1,400,56.0,14057.0,81.84,81.5,-1,
 422163,-402,74,8144,-14,15,25,9822,0,-5,5168,6,184,39,4878,0,-1,0,0,-1,400,56.0,14073.0,81.84,81.5,-1,
 422183,-396,58,8186,-16,15,25,9821,-2,4,5168,6,182,34,4878,0,-1,0,0,-1,400,56.0,14089.0,81.84,81.5,-1,
 422193,-392,78,8176,-12,15,32,9820,-1,-4,5160,2,181,44,4877,0,-1,0,0,-1,400,56.0,14107.0,81.84,81.5,-1,
 422213,-418,76,8162,-11,14,21,9821,-8,-2,5176,6,182,51,4879,0,-1,0,0,-1,400,56.0,14123.0,81.84,81.5,-1,
 422233,-380,62,8162,-14,15,28,9821,0,-1,5168,6,183,48,4879,0,-1,0,0,-1,400,56.0,14139.0,81.84,81.5,-1,
 422243,-420,38,8180,-15,12,26,9822,5,1,5168,0,182,70,4878,0,-1,0,0,-1,400,56.0,14156.0,81.84,81.5,-1,
 422263,-470,64,8162,-19,17,33,9822,0,-2,5168,1,183,81,4879,0,-1,0,0,-1,400,56.0,14173.0,81.95,81.61,-1,
 422283,-426,48,8188,-12,15,27,9821,-10,-2,5168,1,177,48,4879,0,-1,0,0,-1,400,56.0,14190.0,81.95,81.61,-1,
 422293,-424,54,8174,-15,15,24,9822,5,-2,5160,3,179,48,4879,0,-1,0,0,-1,400,56.0,14206.0,81.95,81.73,-1,
 422313,-410,66,8164,-17,15,28,9822,1,-1,5176,6,177,54,4879,0,-1,0,0,-1,400,56.0,14222.0,81.95,81.73,-1,
 422333,-156,138,6964,-19,33,26,9822,6,-2,5168,4,178,89,4878,0,-1,0,0,-1,400,56.0,14240.0,81.95,81.73,-1,
 422343,-152,-108,7626,-18,22,29,9822,1,-1,5168,4,183,94,4879,0,-1,0,0,-1,400,56.0,14256.0,81.95,81.73,-1,
 422363,-550,126,7994,-21,-1,26,9821,-3,0,5160,10,177,54,4879,0,-1,0,0,-1,400,56.0,14273.0,81.95,81.73,-1,
 422373,-762,48,8068,-19,1,27,9820,-3,2,5168,-1,176,55,4878,0,-1,0,0,-1,400,56.0,14305.0,81.95,81.73,-1,
 422393,-392,146,8180,-19,-1,28,9821,-3,6,5168,2,176,58,4879,0,-1,0,0,-1,400,56.0,14323.0,81.95,81.84,-1,
 422433,-356,20,8146,-20,19,28,9822,9,-2,5168,5,181,82,4879,0,-1,0,0,-1,400,56.0,14339.0,81.95,81.73,-1,
 422453,-442,46,8030,-14,15,27,9820,-7,-1,5176,1,177,40,4879,0,-1,0,0,-1,400,56.0,14356.0,82.06,81.73,-1,
 422463,-482,122,8172,-19,7,29,9821,-1,4,5168,7,179,39,4879,0,-1,0,0,-1,400,56.0,14372.0,81.95,81.84,-1,
 422483,-470,48,8182,-14,16,27,9822,-2,3,5168,1,179,91,4879,0,-1,0,0,-1,400,56.0,14389.0,82.06,81.84,-1,
 422493,-420,32,8132,-14,10,26,9821,-1,0,5168,3,179,95,4878,0,-1,0,0,-1,400,56.0,14406.0,82.06,81.84,-1,
 422513,-440,58,8200,-15,16,24,9822,1,-1,5168,9,183,73,4879,0,-1,0,0,-1,400,56.0,14422.0,82.06,81.73,-1,
 422523,-426,38,8178,-14,20,31,9821,-1,-3,5160,4,185,77,4880,0,-1,0,0,-1,400,56.0,14438.0,81.95,81.73,-1,
 422543,-462,76,8196,-19,15,24,9821,-4,0,5168,1,180,68,4880,0,-1,0,0,-1,400,56.0,14455.0,81.95,81.61,-1,
 422563,-390,70,8166,-19,18,24,9821,4,1,5168,3,185,62,4879,0,-1,0,0,-1,400,56.0,14472.0,82.06,81.5,-1,
 422583,-384,44,8172,-22,14,29,9821,-1,4,5168,5,187,126,4878,0,-1,0,0,-1,400,56.0,14489.0,82.06,81.39,-1,
 422593,-400,70,8172,-17,16,26,9821,0,-1,5168,4,193,136,4879,0,-1,0,0,-1,400,56.0,14505.0,81.95,81.39,-1,
 422613,-262,158,7596,-10,22,23,9821,0,1,5168,10,187,95,4879,0,-1,0,0,-1,400,56.0,14521.0,81.95,81.39,-1,
 422623,-552,-126,8206,-20,27,25,9821,-1,1,5160,2,182,92,4878,0,-1,0,0,-1,400,56.0,14539.0,82.06,81.61,-1,
 422633,-644,-30,8298,-15,18,26,9821,0,2,5176,5,180,95,4879,0,-1,0,0,-1,400,56.0,14555.0,82.06,81.5,-1,
 422663,-244,32,8080,-15,21,28,9822,0,2,5160,2,178,100,4879,0,-1,0,0,-1,400,56.0,14572.0,82.06,81.39,-1,
 422673,-372,116,8164,-15,11,24,9822,3,3,5168,4,178,111,4878,0,-1,0,0,-1,400,56.0,14588.0,82.06,81.39,-1,
 422693,-366,82,8156,-16,19,24,9822,2,-1,5160,0,178,96,4878,0,-1,0,0,-1,400,56.0,14604.0,82.06,81.39,-1,
 422713,-434,48,8216,-14,11,25,9821,2,3,5168,10,176,31,4878,0,-1,0,0,-1,400,56.0,14622.0,81.95,81.39,-1,
 422733,-400,46,8172,-21,19,25,9822,0,1,5176,3,177,65,4879,0,-1,0,0,-1,400,56.0,14638.0,82.06,81.39,-1,
 422743,-498,104,8176,-19,7,23,9822,2,3,5168,1,176,95,4878,0,-1,0,0,-1,400,56.0,14655.0,82.06,81.39,-1,
 422763,-466,72,8196,-12,17,27,9822,3,1,5168,3,183,83,4878,0,-1,0,0,-1,400,56.0,14671.0,82.06,81.39,-1,
 422783,-454,82,8234,-18,12,24,9822,3,-4,5176,6,176,73,4878,0,-1,0,0,-1,400,56.0,14687.0,82.06,81.5,-1,
 422793,-426,56,8192,-16,11,30,9821,-5,-2,5168,7,177,53,4879,0,-1,0,0,-1,400,56.0,14705.0,82.06,81.39,-1,
 422813,-376,88,8140,-12,14,28,9822,0,1,5168,10,181,78,4878,0,-1,0,0,-1,400,56.0,14721.0,82.06,81.5,-1,
 422823,-426,54,8168,-17,12,27,9822,0,-1,5160,4,183,92,4878,0,-1,0,0,-1,400,56.0,14737.0,82.06,81.39,-1,
 422843,-468,64,8174,-17,15,29,9822,5,3,5168,1,183,86,4878,0,-1,0,0,-1,400,56.0,14754.0,82.06,81.5,-1,
 422863,-442,66,8160,-15,16,24,9822,-1,-1,5168,0,188,84,4879,0,-1,0,0,-1,400,56.0,14770.0,82.06,81.5,-1,
 422883,-432,90,8142,-18,19,29,9821,0,0,5176,5,174,62,4879,0,-1,0,0,-1,400,56.0,14788.0,81.95,81.5,-1,
 422893,-466,68,8172,-17,16,27,9821,2,1,5168,4,181,70,4879,0,-1,0,0,-1,400,56.0,14804.0,81.84,81.39,-1,
 422913,-398,48,8142,-17,19,30,9821,-1,0,5176,9,180,44,4879,0,-1,0,0,-1,400,56.0,14820.0,81.84,81.39,-1,
 422923,-470,48,8170,-16,16,32,9822,-4,1,5160,2,175,54,4879,0,-1,0,0,-1,400,56.0,14837.0,81.84,81.39,-1,
 422943,-370,34,8172,-18,11,28,9822,3,1,5168,6,182,82,4879,0,-1,0,0,-1,400,56.0,14854.0,81.84,81.5,-1,
 422953,-416,68,8154,-17,7,28,9821,-1,-3,5168,3,178,69,4878,0,-1,0,0,-1,400,56.0,14871.0,81.84,81.5,-1,
 422963,-420,38,8178,-13,14,26,9822,-1,0,5176,0,175,79,4880,0,-1,0,0,-1,400,56.0,14871.0,81.84,81.5,-1,
 422973,-402,58,8146,-16,12,28,9821,-4,-4,5160,3,178,98,4878,0,-1,0,0,-1,400,56.0,14887.0,81.84,81.5,-1,
 422993,-444,82,8168,-17,20,23,9822,2,0,5168,4,180,96,4879,0,-1,0,0,-1,400,56.0,14903.0,81.84,81.39,-1,
 423003,-430,46,8176,-14,13,26,9821,0,-4,5168,0,179,78,4879,0,-1,0,0,-1,400,56.0,14920.0,81.84,81.5,-1,
 423033,-430,40,8184,-16,13,31,9820,-12,-2,5168,5,173,63,4879,0,-1,0,0,-1,400,56.0,14954.0,81.84,81.39,-1,
 423043,-422,30,8192,-16,13,29,9821,-6,-2,5168,1,174,84,4879,0,-1,0,0,-1,400,56.0,14970.0,81.95,81.5,-1,
 423073,-366,58,8180,-18,15,29,9822,0,-6,5160,7,182,125,4879,0,-1,0,0,-1,400,56.0,14986.0,81.84,81.39,-1,
 423093,-392,62,8168,-8,17,28,9822,-3,-7,5160,0,181,155,4878,0,-1,0,0,-1,400,56.0,15003.0,81.84,81.5,-1,
 423113,-440,78,8164,-23,14,23,9822,0,4,5176,7,182,130,4879,0,-1,0,0,-1,400,56.0,15020.0,81.73,81.5,-1,
 423133,-390,62,8168,-20,17,26,9821,-5,1,5168,7,176,84,4879,0,-1,0,0,-1,400,56.0,15037.0,81.73,81.5,-1,
 423143,-418,54,8124,-19,13,24,9822,9,-2,5176,4,172,74,4879,0,-1,0,0,-1,400,56.0,15053.0,81.73,81.39,-1,
 423163,-416,56,8150,-18,18,25,9821,-1,-4,5184,4,173,62,4879,0,-1,0,0,-1,400,56.0,15069.0,81.61,81.39,-1,
 423173,-374,46,8108,-15,20,27,9821,-5,3,5160,2,171,43,4879,0,-1,0,0,-1,400,56.0,15087.0,81.61,81.28,-1,
 423183,-470,50,8100,-10,5,30,9822,0,2,5176,2,171,38,4878,0,-1,0,0,-1,400,56.0,15103.0,81.61,81.17,-1,
 423203,-458,82,8076,-17,2,27,9821,0,-1,5168,4,177,35,4879,0,-1,0,0,-1,400,56.0,15119.0,81.61,81.06,-1,
 423223,-292,42,8358,-13,24,24,9821,-6,1,5160,1,177,21,4879,0,-1,0,0,-1,400,56.0,15136.0,81.61,81.06,-1,
 423243,-344,56,8288,-10,26,25,9822,1,-2,5168,0,181,43,4879,0,-1,0,0,-1,400,56.0,15152.0,81.61,81.17,-1,
 423263,-436,58,8100,-13,21,25,9821,-4,1,5184,2,175,78,4879,0,-1,0,0,-1,400,56.0,15170.0,81.61,81.17,-1,
 423273,-348,50,8210,-15,25,23,9821,0,3,5160,5,176,81,4879,0,-1,0,0,-1,400,56.0,15186.0,81.73,81.17,-1,
 423283,-436,96,8166,-17,14,26,9822,1,-2,5168,3,175,87,4879,0,-1,0,0,-1,400,56.0,15202.0,81.73,81.28,-1,
 423303,-428,54,8154,-18,16,25,9823,0,-1,5168,6,174,91,4878,0,-1,0,0,-1,400,56.0,15219.0,81.73,81.17,-1,
 423313,-488,48,8134,-21,13,27,9821,-7,-1,5168,2,175,82,4879,0,-1,0,0,-1,400,56.0,15236.0,81.73,81.17,-1,
 423343,-412,50,8178,-15,17,26,9821,-2,2,5184,5,176,49,4878,0,-1,0,0,-1,400,56.0,15253.0,81.73,81.17,-1,
 423363,-426,64,8146,-15,11,28,9820,0,-2,5176,2,182,76,4878,0,-1,0,0,-1,400,56.0,15269.0,81.73,81.17,-1,
 423383,-370,72,8180,-15,20,24,9823,7,-1,5160,3,179,77,4878,0,-1,0,0,-1,400,56.0,15285.0,81.73,81.17,-1,
 423393,-406,74,8162,-16,15,29,9822,2,3,5168,2,177,54,4878,0,-1,0,0,-1,400,56.0,15303.0,81.61,81.17,-1,
 423413,-446,44,8194,-17,14,30,9820,-2,-3,5168,9,184,47,4878,0,-1,0,0,-1,400,56.0,15319.0,81.61,81.17,-1,
 423423,-452,46,8172,-16,19,28,9821,-2,-3,5168,4,180,61,4878,0,-1,0,0,-1,400,56.0,15336.0,81.61,81.17,-1,
 423433,-416,52,8168,-20,16,27,9820,-1,0,5160,1,178,65,4878,0,-1,0,0,-1,400,56.0,15352.0,81.73,81.17,-1,
 423453,-410,42,8162,-18,15,25,9822,-1,2,5168,5,178,73,4879,0,-1,0,0,-1,400,56.0,15368.0,81.73,81.17,-1,
 423473,-394,82,8154,-16,11,29,9821,0,0,5168,-1,181,95,4879,0,-1,0,0,-1,400,56.0,15386.0,81.61,81.17,-1,
 423493,-392,64,8204,-15,14,30,9821,-5,1,5168,1,180,83,4879,0,-1,0,0,-1,400,56.0,15402.0,81.73,81.17,-1,
 423503,-442,56,8194,-21,17,27,9822,1,1,5176,4,177,63,4879,0,-1,0,0,-1,400,56.0,15418.0,81.61,81.17,-1,
 423513,-442,48,8162,-14,10,25,9821,1,5,5176,7,177,60,4879,0,-1,0,0,-1,400,56.0,15435.0,81.61,81.17,-1,
 423533,-436,56,8168,-16,13,24,9822,-1,0,5160,5,178,62,4878,0,-1,0,0,-1,400,56.0,15452.0,81.61,81.17,-1,
 423553,-398,50,8132,-14,13,30,9821,-4,-2,5168,6,182,73,4878,0,-1,0,0,-1,400,56.0,15469.0,81.61,81.17,-1,
 423573,-424,74,8168,-16,19,27,9822,9,6,5168,3,183,104,4879,0,-1,0,0,-1,400,56.0,15485.0,81.61,81.06,-1,
 423583,-386,64,8152,-17,19,25,9821,-4,4,5168,0,183,100,4879,0,-1,0,0,-1,400,56.0,15501.0,81.61,81.06,-1,
 423593,-424,68,8160,-14,17,22,9821,-6,3,5168,3,182,83,4878,0,-1,0,0,-1,400,56.0,15519.0,81.61,81.06,-1,
 423623,-442,66,8168,-21,16,26,9822,4,2,5168,4,176,39,4879,0,-1,0,0,-1,400,56.0,15535.0,81.61,81.06,-1,
 423643,-420,42,8146,-9,16,24,9822,2,1,5168,6,171,64,4878,0,-1,0,0,-1,400,56.0,15552.0,81.61,81.17,-1,
 423673,-440,78,8180,-15,19,24,9821,-4,0,5168,2,179,50,4878,0,-1,0,0,-1,400,56.0,15602.0,81.84,81.17,-1,
 423693,-400,62,8150,-16,16,29,9821,-7,-2,5160,4,176,89,4879,0,-1,0,0,-1,400,56.0,15618.0,81.95,81.28,-1,
 423723,-420,58,8162,-15,11,27,9821,0,-1,5160,3,184,47,4878,0,-1,0,0,-1,400,56.0,15635.0,82.06,81.28,-1,
 423743,-426,52,8140,-18,11,21,9821,0,0,5168,2,183,46,4879,0,-1,0,0,-1,400,56.0,15651.0,82.29,81.39,-1,
 423753,-340,70,8352,-22,24,30,9822,5,2,5168,3,176,45,4879,0,-1,0,0,-1,400,56.0,15668.0,82.18,81.39,-1,
 423773,-460,60,8126,-18,14,25,9821,-2,-1,5168,4,167,42,4879,0,-1,0,0,-1,400,56.0,15685.0,82.18,81.39,-1,
 423793,-408,80,8206,-19,7,24,9821,0,-2,5168,2,173,54,4879,0,-1,0,0,-1,400,56.0,15701.0,82.18,81.39,-1,
 423813,-390,58,8146,-11,16,25,9821,-1,-3,5160,0,174,24,4879,0,-1,0,0,-1,400,56.0,15717.0,82.06,81.28,-1,
 423823,-420,72,8156,-20,16,24,9823,9,2,5160,4,175,30,4878,0,-1,0,0,-1,400,56.0,15734.0,82.06,81.28,-1,
 423843,-398,62,8148,-19,15,25,9823,10,3,5168,2,173,29,4879,0,-1,0,0,-1,400,56.0,15768.0,82.18,81.39,-1,
 423873,-392,80,8178,-13,17,30,9822,9,1,5168,7,181,70,4879,0,-1,0,0,-1,400,56.0,15784.0,82.18,81.39,-1,
 423903,-402,26,8160,-19,11,29,9822,-5,-2,5168,5,181,70,4878,0,-1,0,0,-1,400,56.0,15818.0,82.18,81.39,-1,
 423923,-400,58,8178,-18,16,26,9821,0,-2,5160,2,181,90,4878,0,-1,0,0,-1,400,56.0,15834.0,82.18,81.39,-1,
 423943,-414,60,8162,-15,17,23,9822,0,0,5168,2,174,37,4879,0,-1,0,0,-1,400,56.0,15851.0,82.18,81.39,-1,
 423953,-402,66,8168,-14,14,28,9821,-2,1,5168,2,176,31,4878,0,-1,0,0,-1,400,56.0,15867.0,82.18,81.39,-1,
 423963,-402,62,8172,-19,17,27,9822,0,-2,5168,2,176,27,4878,0,-1,0,0,-1,400,56.0,15883.0,82.18,81.39,-1,
 423993,-428,34,8142,-15,14,26,9822,6,1,5168,0,175,31,4879,0,-1,0,0,-1,400,56.0,15901.0,82.18,81.39,-1,
 424013,-396,58,8170,-15,12,22,9822,2,-1,5168,7,182,35,4879,0,-1,0,0,-1,400,56.0,15917.0,82.18,81.39,-1,
 424023,-446,80,8138,-20,14,27,9822,-1,-4,5168,3,181,53,4879,0,-1,0,0,-1,400,56.0,15934.0,82.18,81.39,-1,
 424033,-400,62,8170,-14,16,26,9822,-3,-2,5160,3,179,39,4877,0,-1,0,0,-1,400,56.0,15950.0,82.18,81.39,-1,
 424063,-420,52,8166,-20,16,26,9822,1,-2,5168,2,182,61,4879,0,-1,0,0,-1,400,56.0,15984.0,82.18,81.39,-1,
 424073,-438,44,8186,-18,13,25,9821,0,-3,5168,5,177,47,4879,0,-1,0,0,-1,400,56.0,16000.0,82.18,81.39,-1,
 424103,-420,78,8166,-22,16,24,9821,-7,3,5168,0,176,69,4879,0,-1,0,0,-1,400,56.0,16016.0,82.18,81.39,-1,
 424123,-422,58,8144,-14,17,28,9822,3,1,5168,3,179,82,4879,0,-1,0,0,-1,400,56.0,16033.0,82.18,81.39,-1,
 424133,-404,52,8166,-20,12,26,9821,-8,2,5168,3,181,78,4878,0,-1,0,0,-1,400,56.0,16050.0,82.18,81.39,-1,
 424153,-430,50,8166,-20,15,25,9821,-5,-2,5168,7,176,69,4879,0,-1,0,0,-1,400,56.0,16067.0,82.18,81.39,-1,
 424173,-408,54,8158,-12,12,27,9821,-4,-1,5160,4,185,93,4878,0,-1,0,0,-1,400,56.0,16083.0,82.18,81.39,-1,
 424183,-404,54,8156,-15,14,27,9822,-2,-1,5160,1,185,95,4878,0,-1,0,0,-1,400,56.0,16099.0,82.18,81.39,-1,
 424193,-424,70,8172,-22,10,27,9821,-5,1,5176,0,183,111,4879,0,-1,0,0,-1,400,56.0,16117.0,82.18,81.39,-1,
 424203,-430,72,8160,-12,12,29,9822,-1,-2,5168,3,183,84,4879,0,-1,0,0,-1,400,56.0,16133.0,82.18,81.39,-1,
 424233,-426,56,8182,-20,18,23,9821,-7,-5,5168,4,176,60,4879,0,-1,0,0,-1,400,56.0,16150.0,82.18,81.39,-1,
 424253,-422,52,8190,-16,19,30,9821,-10,-3,5168,5,182,87,4878,0,-1,0,0,-1,400,56.0,16166.0,82.18,81.39,-1,
 424263,-426,56,8166,-17,17,28,9822,3,3,5168,1,182,90,4878,0,-1,0,0,-1,400,56.0,16182.0,82.18,81.39,-1,
 424273,-398,60,8172,-15,17,25,9822,7,4,5168,5,189,117,4879,0,-1,0,0,-1,400,56.0,16200.0,82.18,81.39,-1,
 424283,-400,66,8152,-15,16,25,9822,2,2,5168,3,182,97,4879,0,-1,0,0,-1,400,56.0,16233.0,82.18,81.39,-1,
 424303,-414,26,8166,-17,12,25,9822,0,2,5168,1,176,55,4877,0,-1,0,0,-1,400,56.0,16249.0,82.18,81.39,-1,
 424353,-412,72,8152,-15,14,25,9822,-5,0,5168,5,184,91,4878,0,-1,0,0,-1,400,56.0,16266.0,82.18,81.39,-1,
 424373,-408,60,8156,-18,17,28,9822,1,1,5168,6,179,78,4877,0,-1,0,0,-1,400,56.0,16283.0,82.18,81.39,-1,
 424393,-434,66,8166,-16,15,27,9821,2,0,5176,5,180,58,4878,0,-1,0,0,-1,400,56.0,16299.0,82.18,81.39,-1,
 424403,-404,64,8158,-15,15,26,9822,4,1,5168,5,179,57,4878,0,-1,0,0,-1,400,56.0,16315.0,82.18,81.39,-1,
 424423,-450,74,8144,-20,12,26,9822,-2,2,5168,5,174,57,4878,0,-1,0,0,-1,400,56.0,16332.0,82.18,81.39,-1,
 424433,-424,76,8164,-13,15,23,9822,3,-1,5168,2,176,62,4878,0,-1,0,0,-1,400,56.0,16349.0,82.18,81.39,-1,
 424443,-420,48,8168,-16,15,20,9822,-1,2,5168,4,176,59,4878,0,-1,0,0,-1,400,56.0,16366.0,82.18,81.39,-1,
 424463,-420,44,8174,-13,12,27,9822,3,-2,5168,1,178,73,4878,0,-1,0,0,-1,400,56.0,16382.0,82.18,81.39,-1,
 424483,-416,54,8170,-19,10,22,9822,0,-1,5168,7,178,52,4878,0,-1,0,0,-1,400,56.0,16398.0,82.18,81.39,-1,
 424513,-416,54,8146,-15,20,25,9821,-6,-3,5168,7,184,72,4878,0,-1,0,0,-1,400,56.0,16416.0,82.18,81.39,-1,
 424523,-418,68,8170,-21,18,27,9823,5,1,5168,3,185,68,4879,0,-1,0,0,-1,400,56.0,16449.0,82.18,81.39,-1,
 424553,-414,68,8160,-22,16,23,9822,6,3,5168,4,180,48,4879,0,-1,0,0,-1,400,56.0,16465.0,82.18,81.39,-1,
 424573,-440,64,8180,-18,16,24,9822,2,-2,5176,2,181,80,4877,0,-1,0,0,-1,400,56.0,16481.0,82.18,81.39,-1,
 424593,-406,40,8170,-14,15,28,9821,-8,-1,5168,1,181,78,4877,0,-1,0,0,-1,400,56.0,16499.0,82.18,81.39,-1,
 424603,-430,88,8158,-18,16,26,9820,-2,1,5168,-1,180,53,4878,0,-1,0,0,-1,400,56.0,16515.0,82.18,81.39,-1,
 424613,-438,76,8176,-16,19,29,9822,3,-3,5168,3,182,53,4878,0,-1,0,0,-1,400,56.0,16532.0,82.18,81.39,-1,
 424643,-390,70,8150,-15,16,28,9821,0,-1,5176,-1,183,75,4878,0,-1,0,0,-1,400,56.0,16548.0,82.18,81.39,-1,
 424653,-392,76,8182,-20,15,25,9821,2,-2,5176,2,182,66,4879,0,-1,0,0,-1,400,56.0,16565.0,82.18,81.39,-1,
 424673,-432,48,8152,-13,17,29,9821,0,-1,5168,2,176,55,4878,0,-1,0,0,-1,400,56.0,16582.0,82.18,81.28,-1,
 424703,-448,88,8148,-17,17,27,9822,0,-1,5168,2,182,55,4878,0,-1,0,0,-1,400,56.0,16614.0,82.18,81.39,-1,
 424713,-434,58,8168,-14,19,25,9822,0,0,5168,0,177,70,4879,0,-1,0,0,-1,400,56.0,16631.0,82.18,81.28,-1,
 424723,-446,58,8146,-16,14,25,9821,1,3,5176,5,177,91,4878,0,-1,0,0,-1,400,56.0,16648.0,82.18,81.28,-1,
 424743,-418,56,8184,-15,15,27,9822,4,1,5176,-6,181,105,4878,0,-1,0,0,-1,400,56.0,16665.0,82.18,81.28,-1,
 424773,-424,66,8158,-13,14,28,9821,0,0,5176,5,179,89,4879,0,-1,0,0,-1,400,56.0,16681.0,82.06,81.28,-1,
 424783,-410,50,8162,-19,14,28,9820,-11,2,5160,3,182,74,4879,0,-1,0,0,-1,400,56.0,16697.0,82.06,81.28,-1,
 424803,-388,68,8178,-15,15,30,9821,1,-2,5176,6,178,72,4878,0,-1,0,0,-1,400,56.0,16715.0,82.06,81.28,-1,
 424823,-422,40,8154,-16,14,27,9822,5,2,5176,3,181,78,4878,0,-1,0,0,-1,400,56.0,16731.0,82.06,81.17,-1,
 424833,-412,46,8160,-22,17,27,9821,7,2,5160,5,182,81,4878,0,-1,0,0,-1,400,56.0,16748.0,82.06,81.17,-1,
 424853,-430,52,8172,-18,9,30,9820,-4,-4,5168,3,182,90,4879,0,-1,0,0,-1,400,56.0,16764.0,82.06,81.17,-1,
 424873,-452,72,8170,-20,14,27,9821,-5,1,5168,1,182,88,4878,0,-1,0,0,-1,400,56.0,16780.0,82.06,81.17,-1,
 424883,-424,54,8170,-18,17,23,9820,-4,-2,5168,7,180,85,4878,0,-1,0,0,-1,400,56.0,16798.0,81.95,81.17,-1,
 424903,-422,92,8164,-15,10,26,9822,0,2,5176,5,176,98,4879,0,-1,0,0,-1,400,56.0,16814.0,81.95,81.17,-1,
 424923,-418,64,8156,-12,16,26,9823,3,5,5176,0,176,84,4878,0,-1,0,0,-1,400,56.0,16831.0,81.95,81.17,-1,
 424933,-422,20,8170,-17,15,28,9822,0,-3,5168,4,175,71,4878,0,-1,0,0,-1,400,56.0,16864.0,81.95,81.28,-1,
 424953,-428,60,8170,-15,20,25,9822,0,3,5176,3,179,67,4878,0,-1,0,0,-1,400,56.0,16881.0,82.06,81.28,-1,
 424983,-436,68,8164,-16,15,25,9821,0,0,5160,0,184,83,4878,0,-1,0,0,-1,400,56.0,16897.0,82.06,81.39,-1,
 425003,-414,60,8166,-20,14,24,9822,5,3,5176,1,186,90,4878,0,-1,0,0,-1,400,56.0,16913.0,82.06,81.39,-1,
 425023,-402,54,8178,-14,18,23,9822,0,-2,5168,0,181,65,4878,0,-1,0,0,-1,400,56.0,16930.0,82.18,81.39,-1,
 425033,-426,72,8162,-13,13,27,9822,5,0,5168,0,181,55,4878,0,-1,0,0,-1,400,56.0,16947.0,82.18,81.39,-1,
 425053,-404,50,8168,-17,9,25,9821,6,2,5184,1,181,82,4879,0,-1,0,0,-1,400,56.0,16964.0,82.18,81.39,-1,
 425063,-362,70,8198,-16,18,30,9822,2,-2,5168,8,176,78,4879,0,-1,0,0,-1,400,56.0,16980.0,82.18,81.39,-1,
 425083,-452,54,8176,-14,12,28,9822,3,3,5160,2,178,60,4879,0,-1,0,0,-1,400,56.0,16996.0,82.18,81.5,-1,
 425103,-404,50,8192,-18,18,27,9822,0,1,5184,4,182,71,4879,0,-1,0,0,-1,400,56.0,17014.0,82.18,81.5,-1,
 425113,-420,38,8168,-21,17,22,9820,0,3,5168,10,185,71,4879,0,-1,0,0,-1,400,56.0,17030.0,82.18,81.5,-1,
 425143,-418,80,8172,-17,13,24,9822,3,-4,5160,3,174,55,4879,0,-1,0,0,-1,400,56.0,17047.0,82.18,81.5,-1,
 425153,-420,54,8168,-18,14,27,9822,8,3,5176,1,176,60,4879,0,-1,0,0,-1,400,56.0,17063.0,82.18,81.5,-1,
 425173,-414,56,8178,-18,15,25,9821,-2,-1,5168,2,179,54,4879,0,-1,0,0,-1,400,56.0,17097.0,82.06,81.61,-1,
 425203,-416,84,8164,-13,15,24,9821,-3,1,5176,6,180,62,4878,0,-1,0,0,-1,400,56.0,17113.0,82.06,81.61,-1,
 425223,-402,60,8166,-21,16,27,9821,-4,2,5160,3,181,105,4879,0,-1,0,0,-1,400,56.0,17130.0,82.06,81.5,-1,
 425233,-418,72,8168,-17,18,30,9822,0,0,5168,3,182,105,4879,0,-1,0,0,-1,400,56.0,17146.0,82.18,81.5,-1,
 425253,-354,82,8192,-18,10,25,9821,0,2,5176,3,179,91,4879,0,-1,0,0,-1,400,56.0,17163.0,82.18,81.5,-1,
 425273,-536,-156,8302,-11,42,25,9821,3,3,5168,-4,173,51,4879,0,-1,0,0,-1,400,56.0,17180.0,82.18,81.61,-1,
 425283,-838,166,7970,-19,3,32,9821,3,5,5168,0,176,41,4879,0,-1,0,0,-1,400,56.0,17196.0,82.18,81.61,-1,
 425303,-482,10,7924,-21,4,29,9822,-2,-3,5176,1,181,61,4879,0,-1,0,0,-1,400,56.0,17213.0,82.18,81.5,-1,
 425323,-402,88,8202,-13,0,32,9822,2,1,5168,2,185,70,4879,0,-1,0,0,-1,400,56.0,17229.0,82.06,81.5,-1,
 425333,-634,34,8134,-16,3,22,9822,-5,-3,5160,4,180,66,4878,0,-1,0,0,-1,400,56.0,17246.0,82.06,81.5,-1,
 425353,-314,96,8050,-17,6,25,9823,6,-2,5176,4,178,54,4878,0,-1,0,0,-1,400,56.0,17263.0,82.06,81.5,-1,
 425363,-316,40,8128,-11,21,28,9822,4,2,5160,5,181,47,4879,0,-1,0,0,-1,400,56.0,17279.0,82.06,81.5,-1,
 425383,-366,-4,8130,-25,18,27,9821,0,-1,5176,7,179,83,4879,0,-1,0,0,-1,400,56.0,17295.0,82.06,81.5,-1,
 425403,-494,64,8096,-15,12,27,9822,1,2,5176,0,177,59,4878,0,-1,0,0,-1,400,56.0,17312.0,82.06,81.5,-1,
 425423,-554,52,8112,-22,7,27,9821,1,0,5160,3,179,56,4879,0,-1,0,0,-1,400,56.0,17329.0,82.06,81.39,-1,
 425433,-438,36,8092,-14,17,29,9822,1,-1,5168,4,178,56,4878,0,-1,0,0,-1,400,56.0,17346.0,82.06,81.39,-1,
 425453,-496,30,8082,-13,12,32,9822,-3,-1,5176,5,185,57,4879,0,-1,0,0,-1,400,56.0,17362.0,81.95,81.28,-1,
 425473,-434,72,8076,-13,15,24,9822,5,-1,5160,2,183,85,4878,0,-1,0,0,-1,400,56.0,17378.0,81.95,81.28,-1,
 425483,-432,60,8184,-17,7,30,9821,2,0,5168,3,181,89,4878,0,-1,0,0,-1,400,56.0,17396.0,81.84,81.28,-1,
 425503,-392,60,8178,-16,14,26,9821,-6,3,5168,5,182,110,4878,0,-1,0,0,-1,400,56.0,17412.0,81.73,81.17,-1,
 425513,-408,90,8162,-12,15,28,9822,6,4,5168,10,178,89,4879,0,-1,0,0,-1,400,56.0,17429.0,81.61,81.17,-1,
 425533,-444,64,8166,-18,14,24,9821,0,3,5176,3,178,74,4879,0,-1,0,0,-1,400,56.0,17445.0,81.5,81.17,-1,
 425553,-372,62,8154,-14,12,28,9822,1,1,5176,2,179,100,4878,0,-1,0,0,-1,400,56.0,17461.0,81.28,81.17,-1,
 425563,-416,90,8160,-18,14,27,9820,-4,-3,5168,9,176,71,4879,0,-1,0,0,-1,400,56.0,17495.0,81.17,81.28,-1,
 425623,-402,72,8154,-19,16,22,9821,-3,1,5168,1,176,47,4879,0,-1,0,0,-1,400,56.0,17528.0,81.17,81.28,-1,
 425633,-418,56,8192,-19,13,27,9821,3,3,5176,1,177,61,4879,0,-1,0,0,-1,400,56.0,17545.0,81.17,81.17,-1,
 425663,-488,36,8122,-15,15,23,9821,3,-2,5168,2,180,80,4878,0,-1,0,0,-1,400,56.0,17578.0,81.17,81.17,-1,
 425673,-372,42,8132,-12,17,27,9822,3,0,5168,4,181,73,4879,0,-1,0,0,-1,400,56.0,17594.0,81.28,81.28,-1,
 425703,-382,96,8194,-18,23,23,9821,-1,-2,5168,4,186,78,4878,0,-1,0,0,-1,400,56.0,17611.0,81.28,81.28,-1,
 425713,-392,56,8170,-10,18,28,9821,-5,-1,5168,2,184,97,4878,0,-1,0,0,-1,400,56.0,17628.0,81.39,81.28,-1,
 425723,-400,34,8112,-15,15,27,9821,-4,-2,5160,3,185,102,4879,0,-1,0,0,-1,400,56.0,17645.0,81.39,81.39,-1,
 425753,-380,50,8122,-21,10,26,9823,6,1,5168,3,185,93,4878,0,-1,0,0,-1,400,56.0,17661.0,81.39,81.39,-1,
 425763,-432,44,8192,-11,13,25,9823,5,3,5176,0,188,86,4878,0,-1,0,0,-1,400,56.0,17677.0,81.28,81.39,-1,
 425783,-402,60,8186,-17,13,27,9822,-1,1,5168,3,182,76,4878,0,-1,0,0,-1,400,56.0,17695.0,81.28,81.39,-1,
 425803,-420,68,8138,-14,17,30,9821,-8,-2,5168,4,184,83,4879,0,-1,0,0,-1,400,56.0,17711.0,81.28,81.39,-1,
 425823,-382,54,8192,-14,17,27,9821,-5,-1,5168,1,184,67,4879,0,-1,0,0,-1,400,56.0,17728.0,81.28,81.5,-1,
 425833,-396,60,8166,-16,15,20,9820,-2,-4,5168,0,179,49,4879,0,-1,0,0,-1,400,56.0,17744.0,81.39,81.73,-1,
 425853,-406,56,8128,-19,13,21,9820,1,-5,5168,0,177,61,4879,0,-1,0,0,-1,400,56.0,17760.0,81.5,81.73,-1,
 425863,-402,82,8208,-14,11,25,9822,-1,4,5168,2,174,82,4879,0,-1,0,0,-1,400,56.0,17778.0,81.5,81.84,-1,
 425883,-412,52,8132,-20,20,23,9822,-5,2,5168,3,177,107,4878,0,-1,0,0,-1,400,56.0,17794.0,81.5,81.73,-1,
 425903,-452,34,8164,-16,13,25,9821,-1,2,5168,4,179,92,4878,0,-1,0,0,-1,400,56.0,17811.0,81.5,81.73,-1,
 425933,-428,64,8178,-15,20,26,9821,1,2,5168,3,186,112,4879,0,-1,0,0,-1,400,56.0,17843.0,81.5,81.73,-1,
 425943,-408,72,8142,-16,16,29,9822,-2,0,5168,6,186,91,4879,0,-1,0,0,-1,400,56.0,17861.0,81.5,81.73,-1,
 425953,-422,66,8182,-20,15,25,9822,2,1,5168,0,188,72,4879,0,-1,0,0,-1,400,56.0,17861.0,81.5,81.73,-1,
 425963,-418,82,8178,-19,16,26,9821,4,1,5168,2,190,88,4879,0,-1,0,0,-1,400,56.0,17877.0,81.5,81.73,-1,
 425983,-420,60,8150,-19,21,22,9821,-4,-3,5168,-1,179,85,4879,0,-1,0,0,-1,400,56.0,17893.0,81.5,81.73,-1,
 425993,-398,74,8160,-17,15,24,9821,-5,-2,5160,4,177,69,4879,0,-1,0,0,-1,400,56.0,17910.0,81.5,81.73,-1,
 426013,-438,44,8166,-14,18,25,9822,-3,1,5168,3,177,52,4879,0,-1,0,0,-1,400,56.0,17927.0,81.5,81.73,-1,
 426033,-416,52,8162,-17,12,22,9823,7,4,5168,6,178,81,4878,0,-1,0,0,-1,400,56.0,17944.0,81.5,81.73,-1,
 426053,-450,48,8164,-17,15,25,9821,3,4,5168,4,182,77,4878,0,-1,0,0,-1,400,56.0,17960.0,81.61,81.73,-1,
 426063,-422,44,8156,-17,11,26,9820,-3,2,5184,2,182,63,4879,0,-1,0,0,-1,400,56.0,17976.0,81.5,81.84,-1,
 426083,-416,44,8162,-13,16,24,9822,0,-6,5168,0,176,33,4879,0,-1,0,0,-1,400,56.0,17993.0,81.61,81.84,-1,
 426103,-418,86,8174,-16,12,28,9821,-7,1,5168,8,186,46,4879,0,-1,0,0,-1,400,56.0,18010.0,81.61,81.84,-1,
 426113,-424,56,8158,-12,14,27,9820,-5,-4,5184,3,186,70,4879,0,-1,0,0,-1,400,56.0,18027.0,81.61,81.84,-1,
 426133,-422,54,8164,-14,12,26,9822,0,2,5160,2,182,108,4879,0,-1,0,0,-1,400,56.0,18043.0,81.61,81.84,-1,
 426153,-398,60,8174,-15,15,26,9822,5,-2,5160,3,184,72,4879,0,-1,0,0,-1,400,56.0,18059.0,81.5,81.84,-1,
 426163,-440,50,8178,-13,17,29,9822,1,-3,5184,0,179,73,4879,0,-1,0,0,-1,400,56.0,18077.0,81.5,81.84,-1,
 426183,-412,46,8176,-15,16,25,9821,-3,-1,5160,2,184,79,4879,0,-1,0,0,-1,400,56.0,18093.0,81.5,81.84,-1,
 426203,-402,40,8174,-17,11,25,9823,-2,-4,5168,2,180,69,4879,0,-1,0,0,-1,400,56.0,18110.0,81.5,81.73,-1,
 426223,-412,96,8182,-10,15,27,9822,2,-1,5160,3,181,68,4879,0,-1,0,0,-1,400,56.0,18160.0,81.61,81.73,-1,
 426253,-406,78,8172,-18,16,30,9821,0,2,5168,0,179,69,4879,0,-1,0,0,-1,400,56.0,18176.0,81.84,81.61,-1,
 426283,-410,68,8160,-14,17,27,9821,-1,0,5160,4,181,28,4879,0,-1,0,0,-1,400,56.0,18192.0,81.84,81.5,-1,
 426293,-394,76,8204,-13,16,24,9822,2,0,5168,3,179,24,4878,0,-1,0,0,-1,400,56.0,18209.0,81.84,81.5,-1,
 426313,-432,46,8184,-13,16,26,9821,-5,0,5168,11,182,46,4878,0,-1,0,0,-1,400,56.0,18226.0,81.84,81.5,-1,
 426323,-452,62,8160,-16,18,27,9821,1,5,5160,4,182,85,4879,0,-1,0,0,-1,400,56.0,18243.0,81.73,81.61,-1,
 426333,-436,70,8172,-19,13,25,9822,1,-1,5160,4,179,76,4878,0,-1,0,0,-1,400,56.0,18259.0,81.73,81.61,-1,
 426343,-414,64,8174,-16,13,27,9820,-9,4,5160,0,177,70,4878,0,-1,0,0,-1,400,56.0,18259.0,81.73,81.61,-1,
 426363,-402,80,8182,-19,17,28,9822,5,2,5168,3,178,70,4878,0,-1,0,0,-1,400,56.0,18275.0,81.73,81.61,-1,
 426383,-416,82,8172,-17,21,25,9822,2,1,5160,3,180,106,4878,0,-1,0,0,-1,400,56.0,18292.0,81.61,81.61,-1,
 426393,-444,68,8182,-18,14,27,9821,-2,3,5168,3,182,93,4878,0,-1,0,0,-1,400,56.0,18309.0,81.61,81.5,-1,
 426413,-408,66,8164,-11,13,30,9821,-3,1,5160,8,184,54,4878,0,-1,0,0,-1,400,56.0,18326.0,81.61,81.61,-1,
 426433,-438,60,8184,-17,13,27,9821,-1,2,5168,6,180,59,4877,0,-1,0,0,-1,400,56.0,18342.0,81.5,81.61,-1,
 426443,-442,56,8174,-14,12,23,9822,-3,-2,5168,2,179,73,4879,0,-1,0,0,-1,400,56.0,18358.0,81.5,81.61,-1,
 426463,-422,80,8152,-12,16,28,9820,-2,1,5168,4,179,28,4878,0,-1,0,0,-1,400,56.0,18376.0,81.61,81.61,-1,
 426473,-408,50,8182,-18,16,25,9821,0,3,5168,5,183,61,4878,0,-1,0,0,-1,400,56.0,18392.0,81.61,81.5,-1,
 426493,-374,56,8156,-13,19,26,9821,-3,-2,5168,2,173,58,4879,0,-1,0,0,-1,400,56.0,18409.0,81.61,81.5,-1,
 426513,-458,46,8180,-17,12,28,9822,-2,-3,5160,1,174,61,4878,0,-1,0,0,-1,400,56.0,18425.0,81.61,81.5,-1,
 426523,-452,62,8158,-15,16,28,9822,1,-1,5160,5,171,62,4879,0,-1,0,0,-1,400,56.0,18441.0,81.5,81.5,-1,
 426553,-404,76,8148,-20,15,27,9821,-1,1,5168,4,179,40,4878,0,-1,0,0,-1,400,56.0,18459.0,81.5,81.5,-1,
 426563,-404,68,8174,-16,16,26,9821,-2,-2,5160,5,177,29,4878,0,-1,0,0,-1,400,56.0,18475.0,81.5,81.5,-1,
 426583,-442,68,8172,-13,16,27,9821,-5,0,5168,3,175,30,4878,0,-1,0,0,-1,400,56.0,18491.0,81.61,81.5,-1,
 426593,-418,84,8154,-21,17,22,9820,-3,4,5160,2,180,21,4878,0,-1,0,0,-1,400,56.0,18508.0,81.61,81.39,-1,
 426613,-410,32,8156,-18,10,28,9822,-3,-1,5160,2,185,57,4878,0,-1,0,0,-1,400,56.0,18524.0,81.61,81.5,-1,
 426633,-418,44,8150,-19,14,24,9823,3,2,5168,5,184,39,4879,0,-1,0,0,-1,400,56.0,18542.0,81.61,81.39,-1,
 426643,-424,76,8164,-16,12,26,9822,-1,2,5168,3,184,31,4879,0,-1,0,0,-1,400,56.0,18558.0,81.61,81.5,-1,
 426663,-430,80,8162,-17,20,23,9820,-3,-2,5168,4,177,36,4879,0,-1,0,0,-1,400,56.0,18574.0,81.73,81.5,-1,
 426683,-376,72,8168,-21,17,23,9822,-1,-1,5168,1,173,37,4879,0,-1,0,0,-1,400,56.0,18591.0,81.73,81.5,-1,
 426703,-426,60,8166,-16,18,26,9821,0,0,5168,5,183,65,4878,0,-1,0,0,-1,400,56.0,18608.0,81.84,81.5,-1,
 426713,-408,50,8166,-15,18,22,9822,8,1,5176,0,182,50,4878,0,-1,0,0,-1,400,56.0,18625.0,81.84,81.39,-1,
 426733,-416,16,8190,-15,14,24,9822,-2,1,5168,6,179,61,4878,0,-1,0,0,-1,400,56.0,18641.0,81.84,81.5,-1,
 426753,-452,42,8164,-17,18,25,9822,0,0,5168,4,176,22,4879,0,-1,0,0,-1,400,56.0,18657.0,81.84,81.5,-1,
 426773,-416,68,8150,-18,17,29,9822,1,0,5160,3,179,20,4877,0,-1,0,0,-1,400,56.0,18691.0,81.84,81.5,-1,
 426803,-404,60,8156,-16,17,28,9823,6,4,5176,5,178,26,4879,0,-1,0,0,-1,400,56.0,18708.0,81.84,81.5,-1,
 426813,-386,44,8150,-19,18,25,9821,0,2,5160,4,181,9,4878,0,-1,0,0,-1,400,56.0,18724.0,81.84,81.5,-1,
 426833,-424,60,8150,-17,16,27,9822,-4,-1,5168,-2,181,53,4879,0,-1,0,0,-1,400,56.0,18740.0,81.84,81.5,-1,
 426843,-418,60,8144,-17,16,25,9821,-1,1,5176,1,179,64,4878,0,-1,0,0,-1,400,56.0,18774.0,81.84,81.5,-1,
 426863,-434,70,8166,-14,12,27,9821,-5,1,5176,0,178,67,4878,0,-1,0,0,-1,400,56.0,18807.0,81.84,81.61,-1,
 426903,-384,68,8146,-14,17,25,9823,4,5,5176,2,181,52,4878,0,-1,0,0,-1,400,56.0,18824.0,81.84,81.5,-1,
 426913,-400,76,8164,-20,18,28,9820,-4,-1,5168,1,182,62,4879,0,-1,0,0,-1,400,56.0,18841.0,81.84,81.5,-1,
 426933,-408,42,8178,-18,11,24,9821,-3,-1,5168,7,176,69,4878,0,-1,0,0,-1,400,56.0,18857.0,81.84,81.61,-1,
 426963,-438,58,8140,-15,16,27,9822,4,2,5160,0,187,100,4878,0,-1,0,0,-1,400,56.0,18873.0,81.84,81.5,-1,
 426983,-404,52,8170,-17,15,24,9821,-3,3,5160,0,183,102,4879,0,-1,0,0,-1,400,56.0,18890.0,81.95,81.5,-1,
 426993,-444,58,8184,-17,16,29,9821,-2,2,5176,1,181,110,4879,0,-1,0,0,-1,400,56.0,18907.0,81.95,81.5,-1,
 427003,-430,56,8182,-16,16,24,9821,3,0,5168,7,181,114,4877,0,-1,0,0,-1,400,56.0,18924.0,81.95,81.61,-1,
 427013,-402,74,8142,-13,15,26,9821,-2,2,5168,2,181,88,4878,0,-1,0,0,-1,400,56.0,18940.0,81.95,81.61,-1,
 427043,-418,40,8152,-13,13,27,9822,1,-1,5176,10,177,61,4879,0,-1,0,0,-1,400,56.0,18956.0,81.95,81.61,-1,
 427063,-468,54,8166,-13,11,27,9820,-5,-4,5168,-2,177,63,4878,0,-1,0,0,-1,400,56.0,18974.0,81.95,81.61,-1,
 427073,-446,54,8148,-17,15,27,9822,1,-1,5168,3,182,72,4879,0,-1,0,0,-1,400,56.0,18990.0,81.95,81.73,-1,
 427083,-432,52,8166,-19,19,28,9821,0,-1,5168,3,185,66,4879,0,-1,0,0,-1,400,56.0,19007.0,81.95,81.73,-1,
 427113,-386,80,8138,-14,16,26,9823,0,2,5176,9,179,50,4878,0,-1,0,0,-1,400,56.0,19023.0,81.95,81.73,-1,
 427123,-402,62,8174,-20,16,28,9821,-4,-2,5168,3,179,30,4878,0,-1,0,0,-1,400,56.0,19039.0,81.95,81.73,-1,
 427143,-416,56,8174,-18,16,29,9822,-3,-3,5176,0,177,59,4879,0,-1,0,0,-1,400,56.0,19057.0,81.95,81.73,-1,
 427163,-424,86,8174,-12,19,27,9822,3,1,5168,2,185,87,4877,0,-1,0,0,-1,400,56.0,19073.0,82.06,81.73,-1,
 427183,-454,48,8182,-16,20,29,9822,1,4,5168,0,175,59,4879,0,-1,0,0,-1,400,56.0,19089.0,82.06,81.73,-1,
 427193,-450,48,8164,-15,13,23,9821,-6,1,5168,1,176,42,4878,0,-1,0,0,-1,400,56.0,19106.0,82.06,81.73,-1,
 427213,-420,68,8172,-16,17,26,9822,1,4,5168,1,186,61,4879,0,-1,0,0,-1,400,56.0,19123.0,82.06,81.73,-1,
 427233,-374,76,8160,-13,16,27,9821,0,-1,5160,-2,181,64,4878,0,-1,0,0,-1,400,56.0,19140.0,82.06,81.73,-1,
 427243,-378,82,8162,-14,19,24,9822,8,-1,5168,4,179,56,4878,0,-1,0,0,-1,400,56.0,19156.0,82.06,81.61,-1,
 427263,-386,104,8184,-15,15,28,9821,-5,-3,5160,0,176,38,4878,0,-1,0,0,-1,400,56.0,19172.0,81.95,81.61,-1,
 427273,-462,46,8230,-14,16,30,9821,-2,2,5176,5,175,48,4878,0,-1,0,0,-1,400,56.0,19189.0,81.95,81.61,-1,
 427283,-446,44,8140,-13,15,26,9822,1,1,5168,3,176,38,4879,0,-1,0,0,-1,400,56.0,19206.0,81.95,81.73,-1,
 427313,-370,60,8146,-18,19,27,9822,3,3,5168,1,172,62,4878,0,-1,0,0,-1,400,56.0,19223.0,81.95,81.73,-1,
 427333,-396,44,8180,-13,19,23,9821,-2,5,5160,0,178,71,4878,0,-1,0,0,-1,400,56.0,19239.0,81.95,81.73,-1,
 427343,-406,60,8126,-17,14,26,9821,-5,1,5168,-1,182,77,4878,0,-1,0,0,-1,400,56.0,19255.0,81.95,81.73,-1,
 427363,-426,56,8210,-14,14,26,9822,4,3,5168,3,175,71,4878,0,-1,0,0,-1,400,56.0,19273.0,81.95,81.73,-1,
 427383,-420,36,8156,-16,17,34,9821,-5,1,5160,5,177,81,4877,0,-1,0,0,-1,400,56.0,19289.0,81.84,81.61,-1,
 427393,-408,70,8190,-17,17,24,9822,0,0,5168,3,178,68,4878,0,-1,0,0,-1,400,56.0,19306.0,81.84,81.61,-1,
 427413,-386,54,8168,-18,24,24,9822,1,-1,5168,6,186,93,4878,0,-1,0,0,-1,400,56.0,19322.0,81.84,81.61,-1,
 427423,-400,48,8168,-17,19,26,9822,-5,1,5176,0,181,81,4878,0,-1,0,0,-1,400,56.0,19338.0,81.84,81.61,-1,
 427443,-506,46,8156,-14,12,29,9823,5,-1,5168,-2,176,74,4878,0,-1,0,0,-1,400,56.0,19356.0,81.95,81.73,-1,
 427463,-412,70,8166,-18,11,23,9821,-3,6,5160,0,178,55,4879,0,-1,0,0,-1,400,56.0,19372.0,81.84,81.73,-1,
 427473,-372,60,8150,-15,10,23,9821,-4,0,5176,3,181,94,4878,0,-1,0,0,-1,400,56.0,19389.0,81.95,81.73,-1,
 427483,-364,56,8140,-15,17,21,9822,0,3,5160,0,175,74,4878,0,-1,0,0,-1,400,56.0,19405.0,81.84,81.73,-1,
 427493,-396,72,8180,-17,16,25,9822,0,-2,5168,2,176,75,4878,0,-1,0,0,-1,400,56.0,19422.0,81.95,81.73,-1,
 427533,-418,58,8194,-15,22,24,9822,0,-2,5160,3,177,84,4878,0,-1,0,0,-1,400,56.0,19439.0,81.95,81.73,-1,
 427543,-452,52,8160,-18,13,26,9821,0,0,5176,0,175,73,4878,0,-1,0,0,-1,400,56.0,19455.0,81.84,81.73,-1,
 427563,-408,60,8166,-14,17,26,9822,2,1,5168,3,173,41,4878,0,-1,0,0,-1,400,56.0,19471.0,81.95,81.61,-1,
 427583,-432,80,8152,-16,17,27,9820,-4,2,5160,5,177,63,4879,0,-1,0,0,-1,400,56.0,19488.0,81.95,81.61,-1,
 427593,-430,30,8172,-17,19,24,9822,3,-2,5168,2,185,79,4878,0,-1,0,0,-1,400,56.0,19505.0,81.95,81.61,-1,
 427613,-386,68,8160,-15,21,26,9821,-2,0,5176,1,176,77,4878,0,-1,0,0,-1,400,56.0,19522.0,81.95,81.61,-1,
 427633,-386,46,8166,-17,18,28,9821,1,0,5168,5,183,84,4878,0,-1,0,0,-1,400,56.0,19538.0,82.06,81.61,-1,
 427643,-410,48,8172,-13,16,26,9821,-8,0,5168,2,184,81,4878,0,-1,0,0,-1,400,56.0,19554.0,82.06,81.61,-1,
 427653,-546,2,8330,-17,13,27,9822,-1,4,5176,0,178,74,4878,0,-1,0,0,-1,400,56.0,19572.0,82.06,81.73,-1,
 427683,-450,64,8158,-21,12,27,9822,11,0,5168,3,180,60,4879,0,-1,0,0,-1,400,56.0,19588.0,82.06,81.73,-1,
 427693,-448,60,8134,-16,10,26,9822,-1,6,5160,5,182,91,4878,0,-1,0,0,-1,400,56.0,19605.0,82.06,81.84,-1,
 427713,-440,62,8182,-14,8,25,9822,1,3,5160,3,185,104,4878,0,-1,0,0,-1,400,56.0,19621.0,82.06,81.84,-1,
 427723,-444,34,8196,-21,16,28,9822,-1,2,5168,0,185,75,4878,0,-1,0,0,-1,400,56.0,19637.0,81.95,81.84,-1,
 427733,-448,52,8182,-17,10,24,9821,-5,-3,5168,4,186,87,4878,0,-1,0,0,-1,400,56.0,19655.0,81.84,81.84,-1,
 427763,-430,52,8142,-19,10,25,9822,5,0,5168,0,186,90,4878,0,-1,0,0,-1,400,56.0,19671.0,81.84,81.84,-1,
 427773,-394,60,8128,-16,14,19,9821,2,-3,5168,4,183,76,4879,0,-1,0,0,-1,400,56.0,19688.0,81.73,81.84,-1,
 427793,-424,84,8150,-15,11,29,9822,4,2,5168,0,172,43,4878,0,-1,0,0,-1,400,56.0,19704.0,81.73,81.84,-1,
 427803,-420,72,8182,-18,16,28,9821,-1,-1,5176,0,176,39,4878,0,-1,0,0,-1,400,56.0,19721.0,81.73,81.95,-1,
 427813,-394,64,8138,-18,15,26,9821,0,0,5168,4,179,54,4878,0,-1,0,0,-1,400,56.0,19738.0,81.61,81.95,-1,
 427843,-430,48,8134,-19,15,24,9821,-5,-1,5168,1,177,62,4878,0,-1,0,0,-1,400,56.0,19754.0,81.61,81.95,-1,
 427863,-386,44,8178,-16,12,25,9821,-2,-1,5160,1,178,78,4879,0,-1,0,0,-1,400,56.0,19770.0,81.61,81.84,-1,
 427873,-388,58,8164,-22,16,25,9822,0,2,5168,0,178,85,4878,0,-1,0,0,-1,400,56.0,19787.0,81.61,81.84,-1,
 427883,-406,68,8156,-14,16,21,9821,4,-1,5168,5,176,64,4878,0,-1,0,0,-1,400,56.0,19804.0,81.61,81.84,-1,
 427903,-444,52,8160,-20,16,25,9823,10,3,5184,4,181,53,4878,0,-1,0,0,-1,400,56.0,19821.0,81.61,81.84,-1,
 427933,-450,54,8178,-18,11,26,9821,2,-1,5168,3,182,55,4878,0,-1,0,0,-1,400,56.0,19837.0,81.73,81.84,-1,
 427943,-396,44,8142,-8,21,25,9822,4,-1,5168,2,178,62,4878,0,-1,0,0,-1,400,56.0,19853.0,81.73,81.73,-1,
 427953,-398,72,8168,-15,16,31,9821,-2,-1,5176,1,175,59,4878,0,-1,0,0,-1,400,56.0,19871.0,81.73,81.84,-1,
 427963,-426,76,8182,-16,13,27,9821,2,1,5160,9,175,50,4878,0,-1,0,0,-1,400,56.0,19887.0,81.84,81.84,-1,
 427973,-376,94,8150,-11,17,30,9821,0,-3,5160,4,176,51,4879,0,-1,0,0,-1,400,56.0,19904.0,81.84,81.73,-1,
 428013,-460,54,8174,-16,16,28,9822,-3,0,5160,7,180,56,4878,0,-1,0,0,-1,400,56.0,19920.0,81.84,81.84,-1,
 428023,-460,58,8148,-13,17,30,9822,1,0,5160,3,182,76,4878,0,-1,0,0,-1,400,56.0,19937.0,81.84,81.73,-1,
 428043,-440,36,8132,-17,10,29,9822,7,-2,5168,1,179,58,4878,0,-1,0,0,-1,400,56.0,19954.0,81.84,81.73,-1,
 428053,-466,0,8160,-19,20,24,9823,7,2,5176,7,179,69,4879,0,-1,0,0,-1,400,56.0,19970.0,81.84,81.73,-1,
 428073,-432,90,8114,-11,17,29,9823,3,-2,5160,2,185,78,4878,0,-1,0,0,-1,400,56.0,19987.0,81.84,81.73,-1,
 428083,-376,68,8140,-12,13,25,9822,3,0,5168,2,180,95,4878,0,-1,0,0,-1,400,56.0,20003.0,81.84,81.73,-1,
 428103,-390,40,8204,-17,16,25,9822,6,3,5176,7,179,109,4879,0,-1,0,0,-1,400,56.0,20020.0,81.84,81.73,-1,
 428123,-422,50,8146,-16,14,25,9822,1,1,5168,4,174,77,4878,0,-1,0,0,-1,400,56.0,20037.0,81.84,81.73,-1,
 428163,-414,62,8168,-16,12,23,9823,5,1,5168,4,178,55,4878,0,-1,0,0,-1,400,56.0,20069.0,81.84,81.73,-1,
 428173,-414,70,8166,-20,13,28,9822,0,-2,5168,2,177,76,4878,0,-1,0,0,-1,400,56.0,20087.0,81.84,81.73,-1,
 428193,-420,72,8160,-19,15,28,9821,-1,2,5168,2,183,78,4878,0,-1,0,0,-1,400,56.0,20103.0,81.84,81.73,-1,
 428213,-416,64,8158,-18,24,25,9822,1,0,5176,2,181,42,4878,0,-1,0,0,-1,400,56.0,20120.0,81.84,81.73,-1,
 428223,-438,54,8184,-18,11,27,9823,5,2,5168,3,183,43,4878,0,-1,0,0,-1,400,56.0,20136.0,81.84,81.73,-1,
 428243,-416,72,8168,-12,10,23,9822,1,2,5168,4,179,60,4879,0,-1,0,0,-1,400,56.0,20152.0,81.84,81.73,-1,
 428263,-392,76,8148,-20,16,28,9821,1,2,5168,4,181,61,4877,0,-1,0,0,-1,400,56.0,20170.0,81.73,81.95,-1,
 428273,-392,78,8176,-19,13,25,9822,5,1,5168,0,183,73,4878,0,-1,0,0,-1,400,56.0,20186.0,81.84,81.84,-1,
 428293,-408,44,8180,-11,14,29,9821,-2,1,5168,5,178,87,4878,0,-1,0,0,-1,400,56.0,20203.0,81.84,81.84,-1,
 428313,-442,32,8146,-16,12,29,9822,4,3,5176,3,179,79,4878,0,-1,0,0,-1,400,56.0,20219.0,81.84,81.84,-1,
 428323,-436,102,8160,-18,19,29,9822,7,2,5160,3,179,71,4877,0,-1,0,0,-1,400,56.0,20236.0,81.84,81.84,-1,
 428333,-430,42,8174,-14,15,27,9823,6,-1,5176,2,174,55,4879,0,-1,0,0,-1,400,56.0,20253.0,81.95,81.84,-1,
 428353,-384,48,8152,-16,11,31,9821,0,-1,5168,2,175,47,4878,0,-1,0,0,-1,400,56.0,20269.0,81.95,81.73,-1,
 428373,-404,46,8156,-20,22,26,9822,6,-4,5160,0,182,115,4878,0,-1,0,0,-1,400,56.0,20286.0,81.95,81.73,-1,
 428393,-430,50,8182,-20,21,23,9822,1,-2,5168,0,187,140,4878,0,-1,0,0,-1,400,56.0,20303.0,81.84,81.73,-1,
 428413,-406,58,8164,-11,22,26,9821,-1,2,5168,8,184,92,4878,0,-1,0,0,-1,400,56.0,20319.0,81.84,81.84,-1,
 428433,-450,80,8208,-16,15,25,9822,5,-5,5168,2,181,35,4878,0,-1,0,0,-1,400,56.0,20336.0,81.95,81.84,-1,
 428453,-442,82,8164,-18,15,24,9822,4,0,5168,2,179,31,4878,0,-1,0,0,-1,400,56.0,20368.0,81.95,81.73,-1,
 428473,-384,64,8172,-18,14,27,9822,1,4,5160,2,178,37,4878,0,-1,0,0,-1,400,56.0,20386.0,81.95,81.73,-1,
 428483,-386,48,8144,-12,15,25,9821,-3,-2,5176,4,181,39,4878,0,-1,0,0,-1,400,56.0,20402.0,81.95,81.73,-1,
 428493,-410,70,8172,-19,16,26,9821,2,0,5168,4,182,46,4878,0,-1,0,0,-1,400,56.0,20419.0,81.95,81.61,-1,
 428513,-906,238,8722,-8,7,28,9822,2,0,5168,8,178,44,4878,0,-1,0,0,-1,400,56.0,20452.0,81.84,81.5,-1,
 428563,-372,30,8188,-19,17,26,9822,6,2,5176,4,182,30,4878,0,-1,0,0,-1,400,56.0,20469.0,81.84,81.5,-1,
 428573,-274,84,8214,-12,21,27,9822,-1,-6,5168,4,180,36,4878,0,-1,0,0,-1,400,56.0,20485.0,81.84,81.5,-1,
 428593,-376,22,8090,-15,17,26,9821,0,0,5168,4,175,64,4878,0,-1,0,0,-1,400,56.0,20502.0,81.84,81.5,-1,
 428603,-482,80,8140,-14,13,28,9823,9,4,5160,4,176,59,4878,0,-1,0,0,-1,400,56.0,20518.0,81.84,81.5,-1,
 428623,-460,82,8222,-16,12,23,9821,1,2,5168,4,175,75,4878,0,-1,0,0,-1,400,56.0,20535.0,81.84,81.39,-1,
 428643,-412,54,8180,-12,8,30,9821,-4,0,5168,2,178,59,4878,0,-1,0,0,-1,400,56.0,20552.0,81.84,81.39,-1,
 428663,-350,32,8086,-18,15,25,9821,-5,0,5168,1,185,62,4878,0,-1,0,0,-1,400,56.0,20568.0,81.84,81.5,-1,
 428673,-392,60,8172,-16,13,26,9821,-7,-2,5168,4,180,79,4878,0,-1,0,0,-1,400,56.0,20585.0,81.84,81.5,-1,
 428693,-380,52,8182,-19,17,26,9822,3,2,5168,0,179,100,4878,0,-1,0,0,-1,400,56.0,20602.0,81.84,81.5,-1,
 428713,-438,70,8094,-13,19,21,9823,7,0,5184,2,182,73,4878,0,-1,0,0,-1,400,56.0,20618.0,81.84,81.61,-1,
 428723,-482,6,8016,-17,11,24,9821,5,-1,5160,0,176,73,4878,0,-1,0,0,-1,400,56.0,20635.0,81.84,81.61,-1,
 428743,-490,64,8160,-14,7,28,9822,3,-3,5168,0,180,96,4878,0,-1,0,0,-1,400,56.0,20651.0,81.84,81.61,-1,
 428763,-316,68,8250,-18,19,22,9821,0,1,5168,2,177,98,4879,0,-1,0,0,-1,400,56.0,20667.0,81.84,81.73,-1,
 428793,-414,58,8180,-18,20,26,9821,-5,-1,5168,2,181,56,4878,0,-1,0,0,-1,400,56.0,20718.0,81.95,81.73,-1,
 428823,-446,48,8152,-19,14,28,9822,7,1,5168,0,178,92,4878,0,-1,0,0,-1,400,56.0,20734.0,81.95,81.73,-1,
 428843,-450,80,8160,-14,15,27,9822,-5,2,5168,-1,182,128,4878,0,-1,0,0,-1,400,56.0,20751.0,81.95,81.73,-1,
 428853,-462,64,8180,-14,13,28,9822,0,-2,5168,0,182,97,4878,0,-1,0,0,-1,400,56.0,20768.0,81.95,81.61,-1,
 428873,-422,64,8170,-21,17,25,9821,0,1,5168,4,188,79,4878,0,-1,0,0,-1,400,56.0,20784.0,81.95,81.61,-1,
 428893,-406,38,8160,-19,12,28,9821,0,-2,5168,3,177,54,4878,0,-1,0,0,-1,400,56.0,20801.0,81.95,81.73,-1,
 428903,-408,76,8140,-15,15,30,9822,-1,1,5168,3,176,45,4878,0,-1,0,0,-1,400,56.0,20817.0,81.95,81.73,-1,
 428913,-404,96,8164,-11,17,25,9821,0,-1,5176,5,180,71,4878,0,-1,0,0,-1,400,56.0,20834.0,81.84,81.73,-1,
 428943,-410,76,8168,-11,8,28,9822,3,-1,5168,5,171,29,4878,0,-1,0,0,-1,400,56.0,20851.0,81.95,81.84,-1,
 428963,-418,76,8098,-17,17,28,9821,-7,2,5176,6,179,49,4878,0,-1,0,0,-1,400,56.0,20867.0,81.95,81.95,-1,
 428973,424,224,7504,-4,41,17,9821,1,2,5168,1,180,57,4878,0,-1,0,0,-1,400,56.0,20884.0,81.95,81.84,-1,
 428993,-524,12,8182,-12,17,25,9821,-2,6,5168,5,179,57,4877,0,-1,0,0,-1,400,56.0,20901.0,81.95,81.84,-1,
 429013,-418,66,8000,-22,15,27,9821,-3,0,5176,2,181,48,4877,0,-1,0,0,-1,400,56.0,20917.0,81.95,81.73,-1,
 429023,-390,80,8240,-19,6,23,9820,-10,0,5168,1,179,30,4878,0,-1,0,0,-1,400,56.0,20934.0,81.95,81.61,-1,
 429033,-356,38,7980,-13,11,26,9822,3,2,5168,2,173,34,4878,0,-1,0,0,-1,400,56.0,20950.0,81.95,81.61,-1,
 429053,-352,64,8234,-16,10,25,9821,-1,-2,5168,4,173,44,4878,0,-1,0,0,-1,400,56.0,20966.0,81.95,81.61,-1,
 429063,-360,44,8146,-13,17,25,9821,-2,0,5176,4,171,54,4878,0,-1,0,0,-1,400,56.0,20966.0,81.95,81.61,-1,
 429073,-298,38,8140,-15,24,31,9820,-2,-6,5168,6,174,57,4878,0,-1,0,0,-1,400,56.0,20984.0,81.84,81.5,-1,
 429093,-390,46,8162,-13,14,23,9822,3,-1,5168,5,176,31,4878,0,-1,0,0,-1,400,56.0,21000.0,81.95,81.5,-1,
 429113,-408,84,8172,-18,19,23,9822,0,-1,5176,1,176,41,4879,0,-1,0,0,-1,400,56.0,21017.0,81.95,81.5,-1,
 429123,-410,64,8160,-19,14,28,9821,-2,2,5168,1,175,39,4878,0,-1,0,0,-1,400,56.0,21033.0,81.95,81.5,-1,
 429143,-428,54,8186,-21,18,23,9822,-1,5,5168,1,174,49,4878,0,-1,0,0,-1,400,56.0,21050.0,81.95,81.5,-1,
 429153,-416,92,8178,-16,18,24,9821,-5,0,5168,2,175,60,4878,0,-1,0,0,-1,400,56.0,21083.0,81.95,81.5,-1,
 429183,-400,52,8168,-14,9,28,9821,-4,0,5168,2,170,39,4878,0,-1,0,0,-1,400,56.0,21100.0,81.95,81.5,-1,
 429203,-394,38,8134,-16,13,21,9821,0,2,5176,6,174,29,4878,0,-1,0,0,-1,400,56.0,21116.0,81.84,81.5,-1,
 429223,-404,58,8156,-17,18,30,9822,0,0,5168,3,182,37,4879,0,-1,0,0,-1,400,56.0,21133.0,81.95,81.5,-1,
 429243,-406,62,8158,-16,15,26,9822,4,0,5160,4,182,36,4878,0,-1,0,0,-1,400,56.0,21150.0,81.95,81.5,-1,
 429263,-50,82,7880,-21,22,23,9821,-7,2,5168,3,175,22,4878,0,-1,0,0,-1,400,56.0,21166.0,81.84,81.61,-1,
 429273,-378,124,8114,-16,17,27,9822,-4,-5,5168,4,172,4,4878,0,-1,0,0,-1,400,56.0,21183.0,81.95,81.61,-1,
 429293,-504,76,8156,-18,21,27,9821,0,1,5160,0,173,18,4879,0,-1,0,0,-1,400,56.0,21216.0,81.95,81.73,-1,
 429323,-442,116,8252,-12,10,23,9821,-4,-6,5160,4,181,75,4879,0,-1,0,0,-1,400,56.0,21233.0,81.95,81.73,-1,
 429343,-370,54,8202,-17,14,29,9821,-1,1,5168,1,182,88,4878,0,-1,0,0,-1,400,56.0,21249.0,81.95,81.73,-1,
 429353,-390,66,8192,-24,17,27,9822,-4,-2,5168,6,179,52,4878,0,-1,0,0,-1,400,56.0,21265.0,81.95,81.73,-1,
 429373,-298,10,8116,-5,18,28,9821,0,0,5168,3,179,56,4878,0,-1,0,0,-1,400,56.0,21283.0,81.95,81.73,-1,
 429393,-388,68,8160,-14,23,24,9822,6,-5,5168,0,183,74,4878,0,-1,0,0,-1,400,56.0,21299.0,81.95,81.73,-1,
 429403,-460,22,8022,-18,21,25,9822,-4,1,5168,0,179,48,4879,0,-1,0,0,-1,400,56.0,21316.0,81.95,81.73,-1,
 429433,-424,66,8128,-17,8,24,9822,0,-1,5160,4,176,85,4878,0,-1,0,0,-1,400,56.0,21349.0,81.95,81.73,-1,
 429453,-422,20,8146,-18,16,23,9821,0,1,5168,3,180,97,4878,0,-1,0,0,-1,400,56.0,21366.0,81.95,81.73,-1,
 429473,-404,38,8178,-21,20,23,9822,-1,2,5168,6,182,89,4878,0,-1,0,0,-1,400,56.0,21382.0,81.95,81.73,-1,
 429493,-448,80,8158,-23,13,27,9823,7,1,5176,1,176,17,4878,0,-1,0,0,-1,400,56.0,21416.0,81.95,81.84,-1,
 429513,-608,40,8042,-20,10,26,9820,-11,0,5160,2,184,88,4879,0,-1,0,0,-1,400,56.0,21432.0,81.95,81.84,-1,
 429543,-454,26,8294,-20,8,26,9823,3,4,5176,2,176,48,4879,0,-1,0,0,-1,400,56.0,21449.0,81.95,81.73,-1,
 429553,-352,98,8232,-20,8,23,9822,4,0,5168,0,177,58,4879,0,-1,0,0,-1,400,56.0,21465.0,81.95,81.73,-1,
 429573,-474,60,8496,-18,20,29,9822,1,3,5168,3,188,122,4878,0,-1,0,0,-1,400,56.0,21482.0,81.95,81.73,-1,
 429593,-448,6,8168,-14,21,25,9822,0,1,5168,0,188,176,4878,0,-1,0,0,-1,400,56.0,21499.0,81.95,81.73,-1,
 429603,-454,90,8064,-13,17,25,9822,4,3,5160,1,182,127,4879,0,-1,0,0,-1,400,56.0,21515.0,81.95,81.61,-1,
 429613,-438,44,8094,-18,14,28,9821,0,-2,5160,7,176,69,4879,0,-1,0,0,-1,400,56.0,21515.0,81.95,81.61,-1,
 429623,-492,62,8132,-18,9,23,9822,3,2,5168,4,174,40,4879,0,-1,0,0,-1,400,56.0,21532.0,81.95,81.61,-1,
 429633,-562,34,8066,-13,13,28,9822,5,2,5168,4,177,32,4878,0,-1,0,0,-1,400,56.0,21548.0,81.95,81.61,-1,
 429643,-384,74,8198,-16,12,25,9821,-3,-3,5176,4,180,60,4878,0,-1,0,0,-1,400,56.0,21566.0,81.95,81.61,-1,
 429653,-406,80,8180,-15,12,24,9821,0,-4,5168,1,177,58,4878,0,-1,0,0,-1,400,56.0,21582.0,81.95,81.61,-1,
 429673,-380,64,8186,-14,20,27,9821,-2,-2,5168,2,180,59,4879,0,-1,0,0,-1,400,56.0,21598.0,81.95,81.5,-1,
 429703,-418,86,8166,-8,15,26,9822,1,-1,5168,6,182,87,4879,0,-1,0,0,-1,400,56.0,21615.0,81.95,81.5,-1,
 429723,-468,38,8184,-15,13,27,9822,3,0,5160,0,179,86,4878,0,-1,0,0,-1,400,56.0,21631.0,81.95,81.5,-1,
 429733,-448,38,8152,-16,17,22,9821,-2,0,5168,3,179,74,4878,0,-1,0,0,-1,400,56.0,21648.0,81.95,81.5,-1,
 429743,-420,62,8168,-17,11,24,9821,-7,-1,5176,0,179,92,4879,0,-1,0,0,-1,400,56.0,21665.0,81.84,81.61,-1,
 429753,-416,58,8184,-19,10,24,9822,2,-3,5168,0,179,70,4878,0,-1,0,0,-1,400,56.0,21665.0,81.84,81.61,-1,
 429773,-398,62,8170,-16,13,25,9821,0,0,5168,10,185,117,4878,0,-1,0,0,-1,400,56.0,21681.0,81.95,81.61,-1,
 429793,-392,54,8156,-14,16,24,9822,0,-3,5176,1,182,59,4878,0,-1,0,0,-1,400,56.0,21698.0,81.95,81.5,-1,
 429803,-402,66,8172,-15,17,31,9821,4,-4,5176,2,182,30,4878,0,-1,0,0,-1,400,56.0,21731.0,81.84,81.61,-1,
 429823,-398,48,8164,-19,17,21,9820,-8,-4,5168,4,179,65,4877,0,-1,0,0,-1,400,56.0,21748.0,81.84,81.61,-1,
 429843,-394,60,8128,-18,13,26,9822,6,4,5176,5,180,73,4879,0,-1,0,0,-1,400,56.0,21764.0,81.95,81.61,-1,
 429863,-394,54,8118,-20,20,28,9822,6,0,5168,2,187,73,4878,0,-1,0,0,-1,400,56.0,21781.0,81.95,81.61,-1,
 429883,-440,70,8206,-19,18,27,9822,4,1,5168,1,180,57,4879,0,-1,0,0,-1,400,56.0,21798.0,81.95,81.73,-1,
 429903,-430,68,8178,-14,11,27,9820,-5,0,5168,2,176,72,4878,0,-1,0,0,-1,400,56.0,21814.0,81.95,81.73,-1,
 429913,-420,66,8162,-20,13,27,9821,-1,-1,5160,8,174,49,4878,0,-1,0,0,-1,400,56.0,21831.0,81.95,81.73,-1,
 429923,-416,70,8146,-9,18,24,9821,0,-1,5168,4,174,67,4879,0,-1,0,0,-1,400,56.0,21847.0,81.95,81.73,-1,
 429953,-392,50,8154,-12,17,24,9822,1,4,5168,1,174,63,4878,0,-1,0,0,-1,400,56.0,21865.0,81.95,81.73,-1,
 429973,-404,44,8148,-11,18,22,9821,-1,0,5168,3,181,51,4878,0,-1,0,0,-1,400,56.0,21881.0,81.95,81.73,-1,
 430003,-386,96,8170,-18,14,29,9822,8,6,5168,1,179,60,4879,0,-1,0,0,-1,400,56.0,21914.0,81.95,81.84,-1,
 430023,-656,-22,8306,-29,7,22,9822,4,4,5176,3,175,61,4879,0,-1,0,0,-1,400,56.0,21930.0,81.95,81.84,-1,
 430033,-574,196,8160,-23,7,22,9821,-2,-3,5168,0,173,74,4878,0,-1,0,0,-1,400,56.0,21947.0,81.95,81.84,-1,
 430043,-240,22,7992,-15,29,25,9822,2,-3,5176,1,174,76,4878,0,-1,0,0,-1,400,56.0,21964.0,81.95,81.84,-1,
 430063,-274,74,8138,-19,14,25,9821,0,3,5168,2,176,80,4878,0,-1,0,0,-1,400,56.0,22014.0,81.95,81.73,-1,
 430113,-518,74,8114,-18,10,23,9821,0,-1,5176,0,176,61,4879,0,-1,0,0,-1,400,56.0,22030.0,81.95,81.73,-1,
 430143,-384,46,8134,-17,11,24,9822,2,-1,5168,3,178,44,4879,0,-1,0,0,-1,400,56.0,22047.0,81.95,81.73,-1,
 430153,-480,66,8162,-17,13,30,9822,-4,-2,5168,1,182,46,4878,0,-1,0,0,-1,400,56.0,22063.0,81.95,81.73,-1,
 430173,-362,52,8176,-18,16,27,9822,2,-2,5176,2,180,48,4878,0,-1,0,0,-1,400,56.0,22081.0,82.06,81.61,-1,
 430193,-428,62,8174,-17,16,29,9821,0,-5,5176,-1,182,76,4878,0,-1,0,0,-1,400,56.0,22097.0,81.95,81.61,-1,
 430223,-428,52,8182,-12,18,28,9822,0,-1,5176,0,170,38,4878,0,-1,0,0,-1,400,56.0,22130.0,81.95,81.61,-1,
 430233,-398,54,8166,-15,16,27,9822,-1,-3,5168,1,174,39,4878,0,-1,0,0,-1,400,56.0,22146.0,81.95,81.61,-1,
 430253,-410,76,8170,-16,13,27,9821,-5,-1,5168,6,174,54,4878,0,-1,0,0,-1,400,56.0,22164.0,81.95,81.61,-1,
 430273,-396,66,8158,-14,9,29,9823,9,-5,5176,2,178,60,4877,0,-1,0,0,-1,400,56.0,22180.0,81.95,81.61,-1,
 430283,-424,66,8160,-18,20,28,9821,-2,1,5168,4,180,62,4878,0,-1,0,0,-1,400,56.0,22196.0,81.95,81.61,-1,
 430293,-414,88,8172,-16,13,29,9822,-2,0,5160,0,179,76,4878,0,-1,0,0,-1,400,56.0,22196.0,81.95,81.61,-1,
 430303,-444,48,8152,-12,17,27,9822,1,-3,5176,2,176,52,4879,0,-1,0,0,-1,400,56.0,22213.0,81.95,81.61,-1,
 430323,-454,78,8134,-18,14,26,9821,-4,2,5168,3,180,57,4878,0,-1,0,0,-1,400,56.0,22230.0,81.95,81.73,-1,
 430333,-416,68,8186,-16,14,25,9822,1,-2,5168,3,177,56,4878,0,-1,0,0,-1,400,56.0,22246.0,81.95,81.73,-1,
 430343,-388,54,8176,-16,13,27,9821,-5,2,5160,2,176,70,4878,0,-1,0,0,-1,400,56.0,22263.0,81.95,81.84,-1,
 430363,-372,68,8168,-15,20,30,9821,-7,0,5160,2,180,85,4878,0,-1,0,0,-1,400,56.0,22279.0,81.95,81.73,-1,
 430373,-406,88,8166,-19,11,23,9822,5,4,5176,5,182,87,4878,0,-1,0,0,-1,400,56.0,22313.0,81.95,81.84,-1,
 430383,-434,68,8160,-15,14,27,9821,4,-3,5168,2,177,78,4878,0,-1,0,0,-1,400,56.0,22329.0,81.95,81.84,-1,
 430393,-438,54,8168,-14,10,25,9821,9,-5,5168,-1,177,73,4879,0,-1,0,0,-1,400,56.0,22329.0,81.95,81.84,-1,
 430413,-412,58,8140,-12,11,28,9821,-8,1,5168,6,179,39,4879,0,-1,0,0,-1,400,56.0,22346.0,81.95,81.73,-1,
 430453,-466,76,8170,-15,19,22,9821,-9,0,5176,3,181,72,4877,0,-1,0,0,-1,400,56.0,22362.0,81.84,81.84,-1,
 430463,-432,54,8160,-18,12,28,9821,3,-1,5168,4,179,57,4878,0,-1,0,0,-1,400,56.0,22380.0,81.95,81.73,-1,
 430483,-402,60,8170,-13,14,20,9822,3,1,5168,5,181,74,4878,0,-1,0,0,-1,400,56.0,22396.0,81.84,81.84,-1,
 430503,-394,70,8160,-21,16,25,9822,3,-1,5176,3,188,60,4878,0,-1,0,0,-1,400,56.0,22412.0,81.95,81.73,-1,
 430513,-388,40,8158,-17,16,24,9821,-1,1,5176,0,182,61,4878,0,-1,0,0,-1,400,56.0,22429.0,81.95,81.73,-1,
 430533,-418,50,8180,-17,13,28,9822,3,-2,5168,5,179,60,4878,0,-1,0,0,-1,400,56.0,22446.0,81.84,81.73,-1,
 430553,-402,48,8166,-15,16,24,9822,2,3,5176,0,175,46,4879,0,-1,0,0,-1,400,56.0,22463.0,81.95,81.73,-1,
 430563,-404,64,8180,-19,17,27,9822,0,-1,5160,2,175,89,4877,0,-1,0,0,-1,400,56.0,22479.0,81.95,81.84,-1,
 430583,-446,78,8152,-15,16,27,9821,-4,-3,5160,1,180,98,4878,0,-1,0,0,-1,400,56.0,22495.0,81.95,81.84,-1,
 430593,-396,74,8132,-16,18,24,9823,-2,-2,5160,-1,182,105,4878,0,-1,0,0,-1,400,56.0,22512.0,81.95,81.73,-1,
 430603,-430,40,8162,-18,9,27,9822,-3,0,5176,2,180,95,4878,0,-1,0,0,-1,400,56.0,22529.0,81.95,81.73,-1,
 430633,-376,64,8172,-16,17,29,9822,-5,-2,5168,4,184,87,4878,0,-1,0,0,-1,400,56.0,22545.0,81.95,81.73,-1,
 430643,-448,76,8170,-15,16,24,9821,-1,2,5160,7,182,73,4878,0,-1,0,0,-1,400,56.0,22562.0,81.95,81.73,-1,
 430653,-422,50,8148,-19,16,26,9821,0,0,5176,-1,185,59,4878,0,-1,0,0,-1,400,56.0,22578.0,81.95,81.73,-1,
 430683,-396,44,8178,-18,14,23,9822,3,1,5168,3,178,56,4878,0,-1,0,0,-1,400,56.0,22596.0,81.95,81.61,-1,
 430693,-396,82,8180,-19,11,25,9821,0,0,5160,2,173,56,4879,0,-1,0,0,-1,400,56.0,22628.0,82.18,81.5,-1,
 430703,-396,66,8168,-16,13,27,9820,2,-2,5176,4,175,56,4878,0,-1,0,0,-1,400,56.0,22661.0,82.06,81.5,-1,
 430723,-388,52,8168,-15,18,28,9822,8,0,5168,3,173,49,4878,0,-1,0,0,-1,400,56.0,22679.0,82.18,81.5,-1,
 430763,-434,78,8144,-19,14,27,9821,-4,-4,5160,4,181,81,4878,0,-1,0,0,-1,400,56.0,22695.0,82.18,81.5,-1,
 430793,-414,68,8152,-15,11,25,9822,1,2,5168,2,183,86,4879,0,-1,0,0,-1,400,56.0,22711.0,82.18,81.5,-1,
 430823,-430,46,8188,-15,15,29,9821,-1,-3,5160,5,176,90,4878,0,-1,0,0,-1,400,56.0,22728.0,82.18,81.5,-1,
 430833,-436,90,8158,-17,17,28,9822,-3,0,5168,4,175,83,4878,0,-1,0,0,-1,400,56.0,22745.0,82.06,81.5,-1,
 430853,-400,56,8202,-18,14,23,9821,-2,4,5168,0,182,102,4879,0,-1,0,0,-1,400,56.0,22762.0,82.06,81.5,-1,
 430873,-426,72,8150,-14,16,24,9821,-1,-1,5160,6,181,66,4879,0,-1,0,0,-1,400,56.0,22778.0,82.18,81.61,-1,
 430893,-436,56,8178,-17,15,26,9821,2,-4,5168,0,172,34,4879,0,-1,0,0,-1,400,56.0,22828.0,82.18,81.61,-1,
 430913,-428,62,8180,-14,15,25,9822,0,2,5160,2,179,58,4879,0,-1,0,0,-1,400,56.0,22845.0,82.06,81.61,-1,
 430933,-432,60,8170,-14,13,26,9822,3,5,5168,3,185,98,4880,0,-1,0,0,-1,400,56.0,22861.0,82.06,81.61,-1,
 430953,-420,70,8164,-15,15,26,9823,5,2,5176,5,183,103,4878,0,-1,0,0,-1,400,56.0,22877.0,81.95,81.61,-1,
 430973,-408,70,8154,-16,19,28,9822,7,-1,5168,0,178,53,4878,0,-1,0,0,-1,400,56.0,22895.0,81.95,81.61,-1,
 430993,-400,62,8174,-16,19,23,9822,0,3,5168,0,184,96,4878,0,-1,0,0,-1,400,56.0,22911.0,81.95,81.61,-1,
 431013,-424,76,8164,-15,11,25,9822,-2,-4,5168,2,184,106,4878,0,-1,0,0,-1,400,56.0,22927.0,81.95,81.61,-1,
 431023,-422,64,8154,-13,17,25,9821,4,2,5168,0,178,104,4877,0,-1,0,0,-1,400,56.0,22944.0,81.95,81.61,-1,
 431043,-422,66,8174,-17,18,27,9822,2,1,5176,0,176,70,4878,0,-1,0,0,-1,400,56.0,22978.0,81.95,81.73,-1,
 431073,-420,60,8156,-18,20,26,9821,-9,-5,5168,1,173,63,4878,0,-1,0,0,-1,400,56.0,22994.0,81.95,81.73,-1,
 431103,-594,196,8418,-26,16,29,9822,1,5,5168,1,184,79,4878,0,-1,0,0,-1,400,56.0,23010.0,81.95,81.73,-1,
 431113,-548,94,8190,-19,10,25,9822,4,-3,5168,10,181,38,4878,0,-1,0,0,-1,400,56.0,23027.0,81.95,81.61,-1,
 431123,-380,28,8114,-15,20,25,9820,-3,0,5168,3,178,27,4878,0,-1,0,0,-1,400,56.0,23044.0,81.95,81.61,-1,
 431153,-308,60,8186,-16,20,29,9820,-5,1,5168,1,178,60,4878,0,-1,0,0,-1,400,56.0,23061.0,82.06,81.61,-1,
 431163,-416,66,8168,-18,13,30,9822,1,1,5168,2,178,76,4878,0,-1,0,0,-1,400,56.0,23077.0,82.06,81.61,-1,
 431173,-376,52,8222,-15,21,31,9822,0,4,5160,4,180,84,4878,0,-1,0,0,-1,400,56.0,23111.0,82.18,81.61,-1,
 431203,-460,36,8206,-16,14,26,9822,3,-5,5168,3,176,78,4879,0,-1,0,0,-1,400,56.0,23127.0,82.18,81.61,-1,
 431233,-426,48,8178,-13,16,26,9822,2,1,5176,5,182,62,4879,0,-1,0,0,-1,400,56.0,23144.0,82.18,81.5,-1,
 431243,-370,68,8122,-14,20,21,9821,-4,-3,5168,2,185,56,4878,0,-1,0,0,-1,400,56.0,23160.0,82.18,81.5,-1,
 431263,-452,78,8188,-16,16,30,9821,1,1,5176,4,184,54,4878,0,-1,0,0,-1,400,56.0,23177.0,82.18,81.5,-1,
 431283,-434,62,8136,-13,17,26,9822,5,0,5176,-1,178,59,4878,0,-1,0,0,-1,400,56.0,23194.0,82.18,81.5,-1,
 431303,-402,76,8186,-12,19,24,9821,-3,-3,5168,0,182,75,4878,0,-1,0,0,-1,400,56.0,23210.0,82.18,81.61,-1,
 431323,-432,58,8168,-16,15,26,9822,4,2,5168,4,176,65,4878,0,-1,0,0,-1,400,56.0,23226.0,82.18,81.5,-1,
 431333,-416,70,8166,-17,19,25,9822,2,-2,5168,2,173,53,4878,0,-1,0,0,-1,400,56.0,23277.0,82.18,81.61,-1,
 431353,-394,52,8180,-18,13,26,9821,0,6,5168,2,178,67,4878,0,-1,0,0,-1,400,56.0,23293.0,82.18,81.61,-1,
 431383,-440,44,8194,-15,14,24,9822,-1,-4,5168,2,188,65,4878,0,-1,0,0,-1,400,56.0,23309.0,82.18,81.61,-1,
 431393,-416,38,8132,-15,16,25,9822,0,2,5168,3,182,36,4878,0,-1,0,0,-1,400,56.0,23327.0,82.18,81.61,-1,
 431423,-434,74,8184,-15,11,25,9822,-3,-3,5168,5,179,41,4878,0,-1,0,0,-1,400,56.0,23343.0,82.18,81.61,-1,
 431453,-410,72,8180,-15,13,29,9822,1,-3,5168,3,176,64,4879,0,-1,0,0,-1,400,56.0,23360.0,82.18,81.61,-1,
 431463,-428,72,8164,-18,16,25,9822,-1,2,5168,1,182,88,4878,0,-1,0,0,-1,400,56.0,23393.0,82.06,81.61,-1,
 431483,-408,26,8166,-19,13,28,9821,7,-1,5160,4,179,77,4879,0,-1,0,0,-1,400,56.0,23410.0,82.06,81.61,-1,
 431513,-434,40,8164,-15,12,25,9822,2,-4,5168,-1,180,112,4879,0,-1,0,0,-1,400,56.0,23426.0,82.06,81.61,-1,
 431533,-440,72,8174,-19,13,28,9822,3,1,5160,2,188,119,4878,0,-1,0,0,-1,400,56.0,23443.0,82.06,81.61,-1,
 431563,-430,80,8156,-18,18,24,9822,-3,-1,5176,6,182,56,4879,0,-1,0,0,-1,400,56.0,23493.0,82.06,81.73,-1,
 431583,-422,52,8150,-21,14,23,9821,-1,1,5168,1,182,86,4879,0,-1,0,0,-1,400,56.0,23509.0,81.95,81.84,-1,
 431603,-382,78,8086,-18,20,23,9821,-3,-7,5168,7,183,83,4879,0,-1,0,0,-1,400,56.0,23525.0,82.06,81.73,-1,
 431633,-460,98,8146,-16,11,27,9821,-1,4,5168,5,184,124,4879,0,-1,0,0,-1,400,56.0,23543.0,82.06,81.73,-1,
 431653,-430,90,8214,-13,10,23,9822,0,3,5160,0,185,111,4877,0,-1,0,0,-1,400,56.0,23559.0,82.06,81.61,-1,
 431683,-444,26,8170,-19,14,22,9821,-1,4,5168,3,185,92,4878,0,-1,0,0,-1,400,56.0,23592.0,82.18,81.61,-1,
 431703,-418,90,8122,-12,11,26,9822,2,2,5168,2,176,79,4878,0,-1,0,0,-1,400,56.0,23608.0,82.18,81.61,-1,
 431723,-396,54,8204,-16,19,25,9822,3,2,5168,2,180,56,4878,0,-1,0,0,-1,400,56.0,23642.0,82.18,81.61,-1,
 431743,-430,70,8136,-14,8,27,9821,0,-4,5160,0,181,56,4879,0,-1,0,0,-1,400,56.0,23659.0,82.18,81.61,-1,
 431763,-420,68,8166,-12,13,30,9822,1,1,5160,2,181,61,4878,0,-1,0,0,-1,400,56.0,23675.0,82.18,81.61,-1,
 431783,-440,66,8154,-17,17,28,9822,7,3,5160,5,184,110,4877,0,-1,0,0,-1,400,56.0,23692.0,82.18,81.61,-1,
 431793,-428,32,8160,-14,19,23,9821,4,4,5168,1,182,108,4878,0,-1,0,0,-1,400,56.0,23709.0,82.18,81.61,-1,
 431813,-426,60,8150,-11,12,28,9823,5,3,5168,7,181,78,4878,0,-1,0,0,-1,400,56.0,23725.0,82.18,81.61,-1,
 431833,-408,62,8166,-19,19,27,9821,-2,0,5160,5,178,63,4878,0,-1,0,0,-1,400,56.0,23759.0,82.18,81.61,-1,
 431853,-432,62,8152,-18,16,27,9821,-6,-1,5168,2,175,57,4878,0,-1,0,0,-1,400,56.0,23775.0,82.18,81.61,-1,
 431873,-394,64,8190,-14,11,25,9820,-5,-1,5160,5,174,37,4878,0,-1,0,0,-1,400,56.0,23792.0,82.18,81.61,-1,
 431883,-442,66,8166,-15,18,25,9822,2,2,5168,0,174,21,4878,0,-1,0,0,-1,400,56.0,23808.0,82.18,81.61,-1,
 431913,-396,56,8144,-18,14,29,9822,1,5,5160,8,180,14,4878,0,-1,0,0,-1,400,56.0,23824.0,82.18,81.61,-1,
 431923,-390,66,8162,-17,15,23,9822,-3,-2,5160,4,174,29,4878,0,-1,0,0,-1,400,56.0,23842.0,82.18,81.61,-1,
 431933,-364,68,8174,-12,18,28,9822,1,0,5168,4,179,82,4878,0,-1,0,0,-1,400,56.0,23858.0,82.18,81.61,-1,
 431963,-454,46,8164,-15,13,28,9821,-2,-3,5160,0,188,109,4878,0,-1,0,0,-1,400,56.0,23875.0,82.18,81.61,-1,
 431983,-418,54,8154,-11,14,24,9822,3,-4,5168,-3,182,65,4878,0,-1,0,0,-1,400,56.0,23908.0,82.18,81.73,-1,
 432003,-392,70,8178,-13,18,26,9823,1,-1,5168,7,171,22,4879,0,-1,0,0,-1,400,56.0,23925.0,82.06,81.73,-1,
 432023,-396,58,8154,-12,15,28,9822,7,-3,5168,4,179,51,4878,0,-1,0,0,-1,400,56.0,23941.0,82.06,81.73,-1,
 432043,-458,42,8172,-16,14,27,9822,0,-2,5176,4,176,28,4878,0,-1,0,0,-1,400,56.0,23958.0,82.06,81.73,-1,
 432053,-458,62,8140,-18,15,24,9822,2,1,5168,1,175,28,4878,0,-1,0,0,-1,400,56.0,23975.0,82.06,81.61,-1,
 432063,-438,66,8186,-14,19,26,9822,0,0,5160,5,182,26,4878,0,-1,0,0,-1,400,56.0,23975.0,82.06,81.61,-1,
 432073,-458,52,8176,-15,12,25,9821,-2,1,5168,3,186,57,4878,0,-1,0,0,-1,400,56.0,23991.0,82.06,81.61,-1,
 432103,-410,56,8162,-15,17,26,9822,-1,3,5168,0,189,87,4878,0,-1,0,0,-1,400,56.0,24008.0,82.06,81.61,-1,
 432113,-430,78,8166,-22,12,27,9821,-5,-2,5160,3,187,75,4878,0,-1,0,0,-1,400,56.0,24024.0,82.06,81.73,-1,
 432133,-404,56,8124,-18,16,27,9821,0,-2,5168,1,180,39,4878,0,-1,0,0,-1,400,56.0,24042.0,82.06,81.73,-1,
 432153,-556,-40,8530,-9,10,25,9821,-6,2,5168,2,181,36,4878,0,-1,0,0,-1,400,56.0,24058.0,82.18,81.73,-1,
 432163,-522,32,8356,-18,17,30,9822,0,-1,5160,5,182,44,4878,0,-1,0,0,-1,400,56.0,24074.0,82.06,81.73,-1,
 432173,-366,44,7996,-11,20,29,9822,6,2,5168,6,179,39,4878,0,-1,0,0,-1,400,56.0,24091.0,82.06,81.73,-1,
 432183,-420,48,8096,-20,18,32,9822,1,-2,5168,0,178,46,4878,0,-1,0,0,-1,400,56.0,24107.0,82.18,81.73,-1,
 432203,-388,74,8162,-20,16,26,9822,4,2,5168,4,179,36,4878,0,-1,0,0,-1,400,56.0,24125.0,82.06,81.61,-1,
 432213,-464,50,8198,-17,9,26,9822,1,-1,5160,3,174,16,4878,0,-1,0,0,-1,400,56.0,24141.0,82.18,81.61,-1,
 432233,-438,72,8180,-8,16,28,9822,2,0,5168,2,175,44,4878,0,-1,0,0,-1,400,56.0,24157.0,82.18,81.61,-1,
 432253,-418,80,8168,-15,15,26,9821,0,0,5168,1,180,58,4878,0,-1,0,0,-1,400,56.0,24174.0,82.18,81.61,-1,
 432273,-406,52,8164,-17,15,29,9822,-2,3,5160,3,179,61,4877,0,-1,0,0,-1,400,56.0,24191.0,82.18,81.61,-1,
 432283,-440,82,8182,-20,11,25,9821,0,0,5168,0,179,53,4877,0,-1,0,0,-1,400,56.0,24207.0,82.18,81.61,-1,
 432303,-416,92,8166,-13,14,27,9822,5,5,5176,7,183,56,4878,0,-1,0,0,-1,400,56.0,24224.0,82.18,81.61,-1,
 432323,-412,54,8168,-18,18,29,9821,0,1,5168,3,183,74,4878,0,-1,0,0,-1,400,56.0,24240.0,82.18,81.61,-1,
 432343,-414,66,8154,-19,15,27,9822,5,-1,5176,1,183,92,4877,0,-1,0,0,-1,400,56.0,24258.0,82.18,81.61,-1,
 432363,-428,66,8190,-18,12,24,9821,-5,3,5160,2,181,87,4878,0,-1,0,0,-1,400,56.0,24274.0,82.18,81.61,-1,
 432383,-412,80,8180,-17,13,30,9822,5,3,5168,6,181,93,4878,0,-1,0,0,-1,400,56.0,24290.0,82.18,81.5,-1,
 432393,-404,50,8166,-14,14,31,9822,8,4,5176,6,181,83,4878,0,-1,0,0,-1,400,56.0,24307.0,82.18,81.5,-1,
 432403,-424,34,8142,-16,15,23,9821,-6,0,5168,6,180,73,4878,0,-1,0,0,-1,400,56.0,24323.0,82.18,81.61,-1,
 432433,-432,60,8156,-13,14,29,9823,4,1,5168,1,181,58,4878,0,-1,0,0,-1,400,56.0,24341.0,82.18,81.61,-1,
 432453,-422,74,8150,-19,16,24,9822,3,1,5168,4,179,56,4878,0,-1,0,0,-1,400,56.0,24357.0,82.18,81.61,-1,
 432463,-428,36,8176,-13,10,28,9822,7,1,5160,5,175,43,4878,0,-1,0,0,-1,400,56.0,24390.0,82.18,81.61,-1,
 432493,-434,46,8174,-10,19,25,9821,-2,2,5176,2,177,69,4878,0,-1,0,0,-1,400,56.0,24424.0,82.18,81.61,-1,
 432503,-406,70,8176,-24,14,25,9821,-4,-2,5168,4,184,81,4878,0,-1,0,0,-1,400,56.0,24440.0,82.18,81.61,-1,
 432543,-424,56,8160,-13,16,27,9821,-3,-4,5176,2,177,59,4877,0,-1,0,0,-1,400,56.0,24456.0,82.18,81.61,-1,
 432563,-406,70,8158,-13,11,25,9822,1,5,5168,5,184,67,4878,0,-1,0,0,-1,400,56.0,24474.0,82.18,81.61,-1,
 432583,-436,56,8142,-21,18,24,9821,0,-5,5168,2,174,67,4878,0,-1,0,0,-1,400,56.0,24490.0,82.18,81.73,-1,
 432593,-428,72,8146,-13,17,29,9822,4,0,5176,2,173,68,4878,0,-1,0,0,-1,400,56.0,24506.0,82.06,81.61,-1,
 432623,-422,62,8190,-16,13,28,9822,0,-6,5168,3,173,60,4878,0,-1,0,0,-1,400,56.0,24573.0,82.06,81.61,-1,
 432643,-428,76,8172,-14,16,25,9822,0,-1,5176,1,179,95,4878,0,-1,0,0,-1,400,56.0,24589.0,82.06,81.61,-1,
 432683,-408,22,8160,-15,13,24,9821,-2,-5,5168,2,186,156,4878,0,-1,0,0,-1,400,56.0,24606.0,82.06,81.73,-1,
